time,pressure,altitude,velocity,acc_x,acc_y,acc_z,acc_tot
-4.260,101.9563,0.740,0.000,-31.129,-14.408,-4.780,34.633
-4.240,101.9620,0.197,0.000,-31.307,-13.875,-4.780,34.576
-4.220,101.9620,-0.409,0.000,-30.951,-14.231,-4.780,34.400
-4.200,101.9584,-0.414,0.000,-30.951,-13.875,-4.528,34.220
-4.180,101.9579,-0.399,0.000,-31.307,-13.875,-4.780,34.576
-4.160,101.9583,-0.420,0.000,-31.129,-13.697,-4.780,34.344
-4.140,101.9590,-0.437,0.000,-31.307,-13.519,-4.780,34.435
-4.120,101.9594,-0.360,0.000,-31.129,-13.697,-4.780,34.344
-4.100,101.9558,0.287,0.000,-31.129,-14.053,-4.780,34.487
-4.080,101.9583,0.380,0.000,-31.129,-14.053,-4.528,34.453
-4.060,101.9553,0.792,0.000,-31.307,-13.875,-4.780,34.576
-4.040,101.9589,0.692,0.000,-31.307,-13.875,-4.780,34.576
-4.020,101.9584,1.028,0.000,-31.307,-13.875,-4.780,34.576
-4.000,101.9548,1.373,0.000,-30.951,-13.875,-4.780,34.254
-3.980,101.9609,0.821,0.000,-31.129,-14.053,-4.780,34.487
-3.960,101.9568,0.640,0.000,-31.129,-14.053,-4.780,34.487
-3.940,101.9579,0.152,0.000,-30.774,-14.053,-4.780,34.166
-3.920,101.9577,0.276,0.000,-31.129,-14.053,-4.780,34.487
-3.900,101.9615,-0.069,0.000,-31.129,-13.697,-4.780,34.344
-3.880,101.9590,-0.511,0.000,-31.307,-13.875,-4.780,34.576
-3.860,101.9631,-0.930,0.000,-31.129,-13.697,-4.780,34.344
-3.840,101.9574,-0.469,0.000,-30.774,-14.053,-4.780,34.166
-3.820,101.9599,-0.423,0.000,-31.307,-13.875,-4.780,34.576
-3.800,101.9595,-0.403,0.000,-31.129,-13.697,-4.780,34.344
-3.780,101.9594,-0.144,0.000,-31.307,-13.875,-4.780,34.576
-3.760,101.9579,-0.140,0.000,-31.485,-13.697,-4.780,34.666
-3.740,101.9589,-0.131,0.000,-30.951,-13.519,-4.780,34.112
-3.720,101.9599,-0.159,0.000,-30.951,-13.519,-4.780,34.112
-3.700,101.9564,-0.094,0.000,-31.307,-13.875,-4.780,34.576
-3.680,101.9584,0.150,0.000,-30.951,-13.875,-4.780,34.254
-3.660,101.9619,-0.564,0.000,-31.307,-13.875,-4.528,34.542
-3.640,101.9619,-0.968,0.000,-31.129,-13.697,-4.780,34.344
-3.620,101.9603,-0.898,0.000,-31.307,-13.875,-4.780,34.576
-3.600,101.9563,-0.146,0.000,-31.129,-13.697,-4.780,34.344
-3.580,101.9589,-0.142,0.000,-31.307,-13.875,-4.780,34.576
-3.560,101.9620,-0.567,0.000,-30.951,-13.519,-4.780,34.112
-3.540,101.9574,-0.168,0.000,-30.774,-14.053,-4.528,34.132
-3.520,101.9582,0.181,0.000,-30.951,-13.875,-4.780,34.254
-3.500,101.9584,0.068,0.000,-30.774,-13.697,-4.780,34.021
-3.480,101.9578,0.133,0.000,-31.129,-14.053,-4.780,34.487
-3.460,101.9583,0.383,0.000,-30.951,-13.875,-4.780,34.254
-3.440,101.9584,0.248,0.000,-30.951,-13.875,-4.780,34.254
-3.420,101.9599,0.121,0.000,-30.951,-13.875,-4.780,34.254
-3.400,101.9599,0.169,0.000,-31.129,-13.697,-4.780,34.344
-3.380,101.9563,0.632,0.000,-31.307,-13.875,-4.780,34.576
-3.360,101.9636,0.238,0.000,-31.129,-14.053,-4.780,34.487
-3.340,101.9594,0.335,0.000,-30.951,-13.875,-4.780,34.254
-3.320,101.9580,0.129,0.000,-30.951,-13.875,-4.780,34.254
-3.300,101.9563,0.460,0.000,-30.951,-13.875,-4.780,34.254
-3.280,101.9568,0.649,0.000,-30.951,-13.875,-4.780,34.254
-3.260,101.9584,0.540,0.000,-31.129,-13.697,-4.780,34.344
-3.240,101.9599,0.595,0.000,-31.307,-13.875,-4.780,34.576
-3.220,101.9584,0.034,0.000,-30.774,-13.697,-4.780,34.021
-3.200,101.9589,-0.135,0.000,-31.129,-14.053,-4.780,34.487
-3.180,101.9599,-0.195,0.000,-30.951,-13.875,-4.780,34.254
-3.160,101.9589,-0.351,0.000,-31.307,-13.875,-4.780,34.576
-3.140,101.9563,0.018,0.000,-30.774,-14.053,-4.780,34.166
-3.120,101.9630,-0.527,0.000,-31.307,-13.875,-4.780,34.576
-3.100,101.9634,-0.847,0.000,-30.951,-13.875,-4.780,34.254
-3.080,101.9574,-0.497,0.000,-30.951,-13.875,-4.780,34.254
-3.060,101.9604,-0.831,0.000,-30.774,-14.053,-4.528,34.132
-3.040,101.9584,-0.973,0.000,-30.951,-13.875,-4.780,34.254
-3.020,101.9574,-0.541,0.000,-30.951,-14.231,-4.780,34.400
-3.000,101.9614,-0.964,0.000,-31.129,-13.697,-4.780,34.344
-2.980,101.9589,-0.774,0.000,-30.951,-13.875,-4.780,34.254
-2.960,101.9609,-0.532,0.000,-31.129,-13.697,-4.780,34.344
-2.940,101.9594,-0.556,0.000,-31.129,-13.697,-4.780,34.344
-2.920,101.9594,-0.316,0.000,-31.129,-14.053,-4.780,34.487
-2.900,101.9619,-0.284,0.000,-31.307,-13.875,-4.780,34.576
-2.880,101.9571,0.235,0.000,-31.307,-13.519,-4.780,34.435
-2.860,101.9598,0.305,0.000,-30.951,-13.875,-4.780,34.254
-2.840,101.9527,1.116,0.000,-30.951,-13.875,-4.780,34.254
-2.820,101.9573,1.107,0.000,-30.951,-13.875,-4.780,34.254
-2.800,101.9582,0.974,0.000,-30.774,-13.697,-4.780,34.021
-2.780,101.9635,0.125,0.000,-30.951,-13.875,-4.780,34.254
-2.760,101.9579,0.237,0.000,-31.129,-13.697,-4.780,34.344
-2.740,101.9536,0.796,0.000,-30.951,-13.875,-4.780,34.254
-2.720,101.9553,1.014,0.000,-31.307,-14.231,-4.780,34.720
-2.700,101.9574,1.069,0.000,-31.129,-14.053,-4.780,34.487
-2.680,101.9593,0.450,0.000,-30.951,-13.875,-4.780,34.254
-2.660,101.9578,0.743,0.000,-31.129,-13.697,-4.780,34.344
-2.640,101.9599,0.182,0.000,-30.951,-13.875,-4.780,34.254
-2.620,101.9598,0.124,0.000,-30.951,-13.875,-4.780,34.254
-2.600,101.9579,0.111,0.000,-31.485,-13.697,-4.780,34.666
-2.580,101.9553,0.265,0.000,-30.951,-13.875,-4.780,34.254
-2.560,101.9608,-0.064,0.000,-31.129,-13.697,-4.528,34.309
-2.540,101.9583,0.150,0.000,-31.129,-13.697,-4.780,34.344
-2.520,101.9574,0.578,0.000,-31.307,-13.875,-4.780,34.576
-2.500,101.9579,0.138,0.000,-31.129,-13.697,-4.780,34.344
-2.480,101.9576,0.141,0.000,-30.951,-13.875,-4.780,34.254
-2.460,101.9604,-0.348,0.000,-31.129,-13.697,-4.780,34.344
-2.440,101.9558,-0.198,0.000,-30.774,-13.697,-4.780,34.021
-2.420,101.9629,-0.753,0.000,-30.951,-13.875,-4.780,34.254
-2.400,101.9594,-0.537,0.000,-31.129,-13.697,-4.780,34.344
-2.380,101.9584,-0.405,0.000,-31.129,-13.697,-4.780,34.344
-2.360,101.9584,-0.071,0.000,-31.307,-13.875,-4.780,34.576
-2.340,101.9615,-0.218,0.000,-30.951,-13.519,-4.780,34.112
-2.320,101.9604,-0.493,0.000,-31.129,-13.697,-4.780,34.344
-2.300,101.9610,-0.715,0.000,-30.774,-14.053,-4.780,34.166
-2.280,101.9609,-0.701,0.000,-30.774,-14.053,-4.780,34.166
-2.260,101.9589,-0.278,0.000,-30.951,-14.231,-4.780,34.400
-2.240,101.9553,-0.245,0.000,-31.129,-14.053,-4.780,34.487
-2.220,101.9579,-0.382,0.000,-31.129,-14.053,-4.780,34.487
-2.200,101.9598,-0.254,0.000,-31.129,-13.697,-4.780,34.344
-2.180,101.9594,0.142,0.000,-31.129,-13.697,-4.780,34.344
-2.160,101.9609,-0.338,0.000,-31.129,-14.053,-4.528,34.453
-2.140,101.9568,0.077,0.000,-31.485,-13.697,-4.780,34.666
-2.120,101.9571,0.242,0.000,-31.129,-13.697,-4.780,34.344
-2.100,101.9552,0.617,0.000,-31.129,-13.697,-4.780,34.344
-2.080,101.9552,0.941,0.000,-31.307,-13.875,-4.780,34.576
-2.060,101.9574,1.004,0.000,-30.774,-14.053,-4.780,34.166
-2.040,101.9578,0.961,0.000,-31.129,-13.697,-4.780,34.344
-2.020,101.9568,0.877,0.000,-30.951,-13.875,-4.528,34.220
-2.000,101.9589,0.521,0.000,-31.307,-13.519,-4.780,34.435
-1.980,101.9584,0.232,0.000,-31.129,-13.697,-4.780,34.344
-1.960,101.9587,0.243,0.000,-31.307,-13.875,-4.780,34.576
-1.940,101.9578,0.329,0.000,-30.951,-13.875,-4.780,34.254
-1.920,101.9582,-0.008,0.000,-30.951,-13.875,-4.528,34.220
-1.900,101.9594,0.083,0.000,-31.129,-13.697,-4.780,34.344
-1.880,101.9604,-0.204,0.000,-30.951,-13.875,-4.780,34.254
-1.860,101.9592,-0.035,0.000,-30.951,-13.875,-4.780,34.254
-1.840,101.9563,0.149,0.000,-30.951,-13.519,-4.780,34.112
-1.820,101.9556,0.457,0.000,-31.129,-14.053,-4.780,34.487
-1.800,101.9546,0.806,0.000,-31.307,-13.875,-4.780,34.576
-1.780,101.9597,0.177,0.000,-30.951,-13.875,-4.780,34.254
-1.760,101.9572,0.117,0.000,-30.951,-13.875,-4.528,34.220
-1.740,101.9568,0.105,0.000,-31.307,-13.875,-4.780,34.576
-1.720,101.9593,0.154,0.000,-31.307,-13.875,-4.780,34.576
-1.700,101.9547,0.353,0.000,-31.129,-13.697,-4.780,34.344
-1.680,101.9556,0.622,0.000,-31.129,-13.697,-4.780,34.344
-1.660,101.9562,0.621,0.000,-30.774,-14.053,-4.780,34.166
-1.640,101.9614,0.252,0.000,-30.951,-13.875,-4.528,34.220
-1.620,101.9584,0.679,0.000,-30.951,-13.875,-4.780,34.254
-1.600,101.9625,0.063,0.000,-30.951,-13.875,-4.780,34.254
-1.580,101.9566,0.329,0.000,-31.129,-13.697,-4.780,34.344
-1.560,101.9574,0.201,0.000,-31.129,-13.697,-4.780,34.344
-1.540,101.9603,0.174,0.000,-31.129,-14.053,-4.780,34.487
-1.520,101.9599,-0.061,0.000,-31.129,-13.697,-4.780,34.344
-1.500,101.9584,-0.128,0.000,-31.129,-13.697,-4.780,34.344
-1.480,101.9587,-0.179,0.000,-31.129,-13.697,-4.528,34.309
-1.460,101.9556,0.269,0.000,-30.951,-13.875,-4.780,34.254
-1.440,101.9593,-0.158,0.000,-30.951,-13.875,-4.780,34.254
-1.420,101.9594,0.078,0.000,-31.129,-14.053,-4.780,34.487
-1.400,101.9588,-0.195,0.000,-31.129,-13.697,-4.780,34.344
-1.380,101.9608,-0.523,0.000,-31.129,-13.697,-4.780,34.344
-1.360,101.9584,-0.718,0.000,-30.951,-13.519,-4.780,34.112
-1.340,101.9566,-0.293,0.000,-30.774,-14.053,-4.780,34.166
-1.320,101.9566,0.101,0.000,-30.774,-14.053,-4.528,34.132
-1.300,101.9556,0.767,0.000,-31.129,-13.697,-4.780,34.344
-1.280,101.9618,0.221,0.000,-31.129,-13.697,-4.780,34.344
-1.260,101.9588,0.047,0.000,-31.129,-13.697,-4.780,34.344
-1.240,101.9594,0.364,0.000,-31.129,-13.697,-4.780,34.344
-1.220,101.9576,0.851,0.000,-31.129,-14.053,-4.528,34.453
-1.200,101.9537,1.129,0.000,-31.485,-14.053,-4.780,34.808
-1.180,101.9550,1.405,0.000,-31.129,-13.697,-4.780,34.344
-1.160,101.9531,1.871,0.000,-31.129,-14.053,-4.780,34.487
-1.140,101.9589,1.498,0.000,-31.129,-13.697,-4.780,34.344
-1.120,101.9563,1.382,0.000,-31.129,-14.053,-4.780,34.487
-1.100,101.9589,0.900,0.000,-30.951,-13.875,-4.780,34.254
-1.080,101.9614,0.186,0.000,-30.951,-13.875,-4.780,34.254
-1.060,101.9609,0.271,0.000,-31.129,-13.697,-4.780,34.344
-1.040,101.9603,0.022,0.000,-30.951,-13.875,-4.780,34.254
-1.020,101.9587,0.433,0.000,-31.485,-13.697,-4.780,34.666
-1.000,101.9578,0.383,0.000,-31.129,-14.053,-4.780,34.487
-0.980,101.9537,0.567,0.000,-30.951,-13.875,-4.780,34.254
-0.960,101.9541,0.665,0.000,-31.129,-13.697,-4.780,34.344
-0.940,101.9540,1.177,0.000,-30.951,-13.875,-4.780,34.254
-0.920,101.9536,1.564,0.000,-31.129,-14.053,-4.780,34.487
-0.900,101.9546,1.592,0.000,-30.951,-13.875,-4.780,34.254
-0.880,101.9604,0.790,0.000,-31.307,-13.875,-4.780,34.576
-0.860,101.9577,0.556,0.000,-31.485,-14.053,-4.780,34.808
-0.840,101.9577,0.262,0.000,-30.951,-13.875,-4.780,34.254
-0.820,101.9573,0.493,0.000,-31.307,-13.875,-4.780,34.576
-0.800,101.9568,0.102,0.000,-30.951,-13.875,-4.780,34.254
-0.780,101.9567,0.185,0.000,-31.307,-13.875,-4.780,34.576
-0.760,101.9613,-0.271,0.000,-31.485,-14.053,-4.780,34.808
-0.740,101.9548,0.284,0.000,-31.307,-14.231,-4.780,34.720
-0.720,101.9613,-0.363,0.000,-32.019,-13.875,-4.780,35.221
-0.700,101.9599,-0.400,0.000,-31.129,-14.408,-4.780,34.633
-0.680,101.9629,-0.715,0.000,-30.774,-14.053,-4.780,34.166
-0.660,101.9563,-0.371,0.000,-31.485,-14.764,-4.780,35.102
-0.640,101.9604,-0.543,0.000,-32.908,-14.764,-4.780,36.384
-0.620,101.9571,-0.178,0.000,-31.307,-13.519,-4.780,34.435
-0.600,101.9618,-0.513,0.000,-27.750,-12.452,0.503,30.419
-0.580,101.9552,-0.191,0.000,0.534,-0.534,1.761,1.916
-0.560,101.9609,-0.301,0.000,-109.575,-41.624,-31.445,121.359
-0.540,101.9556,0.270,0.000,-24.014,-5.870,4.528,25.132
-0.520,101.9578,0.176,0.000,-44.648,-17.255,-3.522,47.996
-0.500,101.9593,-0.005,0.000,-29.350,-12.274,1.258,31.838
-0.480,101.9604,-0.481,0.000,-26.149,-11.918,-3.773,28.983
-0.460,101.9571,-0.103,0.000,-33.086,-15.298,-5.283,36.832
-0.440,101.9566,0.165,0.000,-27.927,-13.341,-4.277,31.244
-0.420,101.9552,0.286,0.000,-30.062,-11.918,-4.277,32.620
-0.400,101.9613,-0.041,0.000,-32.908,-12.985,-4.277,35.635
-0.380,101.9552,0.461,0.000,-30.596,-12.807,-4.780,33.511
-0.360,101.9562,0.553,0.000,-31.129,-13.697,-3.270,34.166
-0.340,101.9584,0.434,0.000,-32.019,-11.384,-2.516,34.075
-0.320,101.9576,0.144,0.000,-30.774,-11.918,-1.258,33.025
-0.300,101.9573,-0.060,0.000,-30.951,-14.586,-13.333,36.722
-0.280,101.9593,-0.425,0.000,-30.062,-14.408,-2.767,33.451
-0.260,101.9603,-0.812,0.000,-32.552,-12.985,-1.509,35.079
-0.240,101.9578,-0.841,0.000,-33.086,-11.029,-2.767,34.985
-0.220,101.9551,-0.577,0.000,-30.951,-13.519,-4.528,34.077
-0.200,101.9563,-0.471,0.000,-31.663,-13.875,-4.780,34.898
-0.180,101.9598,-0.737,0.000,-31.485,-12.274,-3.522,33.976
-0.160,101.9577,-0.719,0.000,-31.841,-11.918,-3.522,34.180
-0.140,101.9572,-0.641,0.000,-31.485,-12.630,-3.773,34.133
-0.120,101.9629,-1.098,0.000,-31.663,-14.231,-4.277,34.976
-0.100,101.9589,-0.883,0.000,-31.485,-12.630,-3.522,34.106
-0.080,101.9542,0.159,0.000,-31.841,-11.918,-2.516,34.091
-0.060,101.9583,0.306,0.000,-31.129,-13.341,-4.780,34.203
-0.040,101.9582,0.610,0.000,-31.485,-14.053,-3.522,34.658
-0.020,101.9594,0.548,0.000,-31.841,-12.630,-4.025,34.490
0.000,101.9577,0.720,0.000,-31.663,-12.096,-2.264,33.970
0.020,101.9582,0.558,0.000,-31.307,-13.519,-4.025,34.338
0.040,101.9587,0.513,0.000,-31.485,-13.697,-4.780,34.666
0.060,101.9594,0.605,0.000,-32.197,-12.630,-2.264,34.659
0.080,101.9609,0.361,0.000,-61.547,-24.903,-9.811,67.115
0.100,101.9600,-7.257,9.812,-461.781,-244.765,13.836,490.622
0.120,101.9973,-9.146,16.034,-306.490,-153.512,-18.616,311.091
0.140,101.9840,-9.733,25.588,-448.084,-243.164,-7.547,477.667
0.160,101.9621,-7.712,34.750,-420.690,-250.635,25.156,458.137
0.180,101.9589,-5.601,44.337,-461.425,-213.458,-56.602,479.347
0.200,101.9562,-3.327,53.367,-423.714,-230.179,-37.986,451.493
0.220,101.9521,-1.065,62.083,-407.527,-228.222,29.181,435.790
0.240,101.9507,0.670,71.161,-433.142,-209.722,-68.425,453.883
0.260,101.9513,1.982,80.778,-459.646,-225.198,35.722,480.893
0.280,101.9421,4.109,90.443,-443.992,-261.486,12.578,483.224
0.300,101.9355,5.983,99.938,-443.459,-245.654,1.509,474.756
0.320,101.9333,7.971,109.533,-449.862,-243.876,-14.591,479.722
0.340,101.9371,8.314,119.824,-491.665,-236.938,-32.955,514.572
0.360,101.9274,9.678,129.960,-474.410,-254.193,-29.181,506.809
0.380,101.9218,11.151,139.462,-443.281,-246.544,-6.289,475.068
0.400,101.9202,12.436,149.234,-460.357,-241.207,-33.961,488.629
0.420,101.9184,12.989,159.208,-438.834,-252.770,-159.239,498.672
0.440,101.9152,13.387,168.669,-446.483,-233.381,-38.489,473.067
0.460,101.9163,13.587,178.160,-448.973,-232.313,-35.722,474.576
0.480,101.9178,13.173,187.790,-455.910,-232.491,-44.023,481.458
0.500,101.9168,13.024,197.588,-466.939,-223.597,-67.670,489.918
0.520,101.9142,13.082,207.663,-474.410,-237.116,-77.230,503.760
0.540,101.9100,13.014,217.590,-471.030,-227.688,-75.217,496.354
0.560,101.9082,13.406,226.965,-440.079,-226.621,-76.978,468.751
0.580,101.9077,13.698,237.041,-473.876,-244.053,-56.098,503.774
0.600,101.8985,14.446,246.303,-443.814,-216.482,-38.741,463.115
0.620,101.8941,15.766,255.673,-443.814,-225.376,-54.086,468.490
0.640,101.8792,18.218,264.526,-421.046,-218.261,-24.150,442.669
0.660,101.8723,20.493,273.155,-408.594,-213.636,-48.803,431.450
0.680,101.8580,24.188,281.627,-402.368,-210.612,-38.741,423.605
0.700,101.8444,28.324,290.452,-417.132,-221.107,-35.470,441.240
0.720,101.8385,31.560,298.868,-398.277,-212.924,-34.967,420.772
0.740,101.8254,35.084,307.383,-398.277,-221.818,-43.520,425.754
0.760,101.8084,39.278,315.858,-387.248,-228.222,-76.475,423.755
0.780,101.7994,43.174,323.832,-357.542,-236.582,-43.269,398.706
0.800,101.7914,46.635,331.433,-344.557,-224.664,-27.672,380.061
0.820,101.7782,49.845,338.900,-343.489,-214.347,-23.395,373.358
0.840,101.7631,53.652,347.202,-384.936,-217.727,-67.167,415.116
0.860,101.7510,57.028,355.149,-366.792,-213.102,-67.419,397.328
0.880,101.7348,60.783,362.655,-349.004,-194.247,-80.752,375.300
0.900,101.7175,64.926,369.960,-358.253,-163.295,-54.338,365.246
0.920,101.7076,68.600,377.154,-354.518,-156.002,-59.620,359.685
0.940,101.6947,72.196,384.184,-341.177,-156.536,-79.494,351.498
0.960,101.6785,76.056,390.919,-302.577,-185.175,-101.380,336.745
0.980,101.6608,80.276,397.657,-334.417,-143.373,-62.136,336.923
1.000,101.6448,84.589,404.113,-315.028,-148.887,-67.922,322.798
1.020,101.6239,89.474,410.262,-289.769,-165.963,-62.136,307.463
1.040,101.6094,94.121,416.706,-316.096,-147.108,-63.394,322.167
1.060,101.5916,98.907,422.996,-310.225,-136.969,-72.198,314.517
1.080,101.5745,103.720,428.921,-277.851,-162.584,-65.155,296.251
1.100,101.5546,108.811,434.899,-290.836,-144.618,-64.148,298.882
1.120,101.5395,113.614,440.931,-284.433,-146.397,-95.342,301.602
1.140,101.5193,118.710,446.682,-284.433,-135.724,-54.086,287.563
1.160,101.4985,124.069,452.904,-307.024,-117.758,-98.613,311.100
1.180,101.4753,129.875,458.650,-286.745,-108.152,-90.311,287.293
1.200,101.4525,135.977,461.969,-181.973,-57.812,-53.080,165.976
1.220,101.4323,142.002,458.549,134.123,9.606,-34.464,-171.013
1.240,101.4056,148.619,458.964,-24.014,25.793,-39.495,20.732
1.260,101.3773,155.836,457.775,0.889,27.216,-0.252,-59.432
1.280,101.3474,163.649,456.835,0.178,11.918,-8.805,-47.019
1.300,101.3202,171.596,455.247,20.812,38.600,-17.358,-79.364
1.320,101.2908,179.836,454.082,21.524,11.562,-9.056,-58.257
1.340,101.2604,188.344,452.232,29.706,26.149,-45.533,-92.528
1.360,101.2338,196.626,450.346,43.403,26.326,-35.722,-94.272
1.380,101.2008,205.341,445.929,42.336,51.941,176.345,-220.848
1.400,101.1669,214.449,441.945,18.678,54.610,156.723,-199.213
1.420,101.1361,223.496,438.735,120.782,38.245,20.377,-160.520
1.440,101.1176,231.188,435.828,112.421,7.115,-10.314,-145.317
1.460,101.0913,238.587,432.819,114.734,27.216,-8.805,-150.446
1.480,101.0522,247.072,429.840,96.590,37.889,-53.583,-148.974
1.500,101.0128,256.448,426.337,135.190,30.596,34.967,-175.151
1.520,100.9632,267.555,423.687,97.479,-23.480,-1.509,-132.479
1.540,100.9207,279.239,420.453,120.959,29.528,-35.722,-161.734
1.560,100.8885,290.255,416.622,115.267,86.095,-68.425,-191.514
1.580,100.8495,301.382,413.711,99.436,26.149,-47.797,-145.583
1.600,100.8100,312.588,410.880,91.787,-34.153,48.552,-141.509
1.620,100.7808,322.756,407.568,128.964,-33.975,3.522,-165.611
1.640,100.7448,332.770,403.962,141.949,39.845,14.339,-180.331
1.660,100.7122,342.309,401.139,95.700,4.625,-51.822,-141.129
1.680,100.6762,351.817,397.848,124.517,-37.711,24.402,-164.571
1.700,100.6402,361.311,394.661,126.296,14.586,-0.755,-159.338
1.720,100.6068,370.534,391.528,122.916,16.543,10.063,-156.632
1.740,100.5807,378.806,388.932,94.811,3.380,-22.892,-129.794
1.760,100.5452,387.705,386.749,75.600,-12.630,-7.044,-109.170
1.780,100.5132,396.439,384.036,77.734,67.061,-12.830,-135.662
1.800,100.4871,404.611,380.937,105.306,-62.970,3.522,-154.948
1.820,100.4569,412.624,378.374,78.446,17.610,-52.325,-128.126
1.840,100.4259,420.584,375.904,80.225,40.379,-16.352,-123.490
1.860,100.4002,428.120,373.472,81.292,-8.716,-36.225,-121.624
1.880,100.3668,435.898,370.464,101.926,-34.687,-48.803,-150.411
1.900,100.3370,443.636,367.506,101.215,34.331,44.275,-147.886
1.920,100.3001,451.896,365.075,86.273,8.005,21.886,-121.565
1.940,100.2733,459.855,362.835,72.576,24.903,-21.886,-111.990
1.960,100.2419,467.914,360.009,103.527,-34.153,4.780,-141.320
1.980,100.2177,475.536,356.999,110.820,39.312,-12.578,-150.457
2.000,100.1934,482.808,354.790,68.307,0.000,38.237,-110.481
2.020,100.1641,490.175,353.205,37.533,27.927,-4.780,-79.227
2.040,100.1333,497.752,350.417,91.253,43.225,35.973,-139.390
2.060,100.0974,505.904,347.211,107.974,-68.840,-4.025,-160.315
2.080,100.0716,513.801,344.958,79.157,13.697,4.780,-112.676
2.100,100.0474,521.362,342.085,101.926,26.860,-36.225,-143.657
2.120,100.0191,528.957,339.674,81.470,26.326,-21.634,-120.509
2.140,99.9933,536.398,337.563,67.061,29.706,2.013,-105.574
2.160,99.9665,543.797,335.264,68.662,23.836,-39.495,-114.920
2.180,99.9382,551.274,332.473,104.772,-15.120,-17.861,-139.554
2.200,99.9134,558.563,330.122,79.869,11.207,-27.923,-117.548
2.220,99.8826,566.156,327.953,62.792,-41.802,-11.320,-108.479
2.240,99.8573,573.593,325.648,78.979,-25.615,2.516,-115.267
2.260,99.8275,581.249,323.434,74.177,22.235,-12.830,-110.693
2.280,99.8048,588.552,321.095,48.384,45.538,-52.577,-116.929
2.300,99.7790,595.797,319.165,63.504,9.072,4.277,-96.491
2.320,99.7542,602.917,317.077,67.239,-2.846,26.163,-104.406
2.340,99.7372,609.353,314.799,62.792,33.620,-39.998,-113.889
2.360,99.7068,616.226,312.960,55.677,14.053,-16.603,-91.975
2.380,99.6753,623.556,310.636,66.350,51.408,-3.270,-116.199
2.400,99.6492,630.883,307.454,103.171,-34.865,-65.155,-159.105
2.420,99.6212,638.342,305.343,72.576,3.558,-10.063,-105.556
2.440,99.5935,645.904,302.876,86.806,-0.356,-27.672,-123.311
2.460,99.5708,653.164,301.019,60.480,4.625,0.503,-92.858
2.480,99.5445,660.442,298.398,92.498,-25.259,24.150,-131.080
2.500,99.5218,667.465,295.840,93.921,-14.231,-11.572,-127.896
2.520,99.4980,674.358,293.910,36.288,25.971,-46.287,-96.495
2.540,99.4753,681.059,292.198,43.759,2.846,-30.439,-85.580
2.560,99.4521,687.640,290.378,45.182,35.221,-13.333,-91.019
2.580,99.4334,693.783,288.283,53.187,-23.302,-43.520,-104.766
2.600,99.4081,700.059,286.439,57.278,-13.875,-11.069,-92.165
2.620,99.3874,706.115,284.412,63.326,-9.606,-26.163,-101.387
2.640,99.3662,712.029,282.714,49.451,-17.432,-5.283,-84.899
2.660,99.3414,718.102,281.367,15.476,18.678,-25.408,-67.327
2.680,99.3130,724.596,279.658,47.672,19.923,-12.830,-85.437
2.700,99.2888,731.138,277.790,41.091,3.024,-45.281,-93.421
2.720,99.2630,737.854,276.167,27.927,35.754,-18.364,-81.144
2.740,99.2413,744.409,273.427,97.657,29.350,-24.150,-136.993
2.760,99.2226,750.597,271.609,52.119,16.899,21.131,-90.924
2.780,99.1999,756.780,269.224,75.422,15.654,40.502,-119.228
2.800,99.1771,762.970,267.048,73.109,-19.745,-11.572,-108.808
2.820,99.1580,768.895,265.139,62.792,-7.293,1.761,-95.439
2.840,99.1373,774.721,262.942,67.595,36.644,10.817,-109.846
2.860,99.1125,780.779,261.335,41.980,-3.202,-23.395,-80.366
2.880,99.0862,787.151,259.809,41.624,-2.135,-14.339,-76.277
2.900,99.0640,793.492,258.552,16.899,-21.524,-13.836,-62.864
2.920,99.0452,799.542,257.125,33.797,12.096,15.597,-71.339
2.940,99.0220,805.688,255.952,8.894,16.009,19.119,-58.675
2.960,98.9977,811.997,254.360,22.235,-33.620,-24.905,-79.581
2.980,98.9826,817.758,253.716,0.000,38.067,-23.898,-32.200
3.000,98.9609,823.546,252.579,10.495,-5.514,-21.634,-56.870
3.020,98.9397,829.329,250.571,68.129,2.312,-0.755,-100.372
3.040,98.9220,834.841,248.845,51.764,-2.668,-15.597,-86.328
3.060,98.8988,840.552,247.012,42.158,39.668,-13.584,-91.659
3.080,98.8796,846.135,245.649,26.504,20.456,-13.081,-68.145
3.100,98.8613,851.542,243.706,64.749,2.135,-4.277,-97.125
3.120,98.8412,856.947,241.012,77.734,22.591,62.891,-134.709
3.140,98.8214,862.334,239.559,3.380,38.956,-10.314,-72.640
3.160,98.8028,867.621,238.289,28.639,6.226,-11.069,-63.528
3.180,98.7825,872.956,236.344,47.494,40.379,18.616,-97.259
3.200,98.7613,878.412,234.448,58.879,-5.159,20.628,-94.801
3.220,98.7421,883.816,232.362,45.538,-50.874,-23.144,-104.294
3.240,98.7259,888.961,230.652,46.427,-26.149,0.000,-85.484
3.260,98.7093,893.921,229.406,2.668,8.716,-28.678,-62.292
3.280,98.6880,899.090,228.282,20.101,9.783,-8.805,-56.227
3.300,98.6699,904.193,226.401,58.879,-18.678,-2.264,-94.012
3.320,98.6486,909.491,224.675,46.427,-24.726,12.830,-86.343
3.340,98.6320,914.608,223.088,28.817,17.432,-32.955,-79.320
3.360,98.6067,920.233,221.864,24.370,12.985,-8.805,-61.183
3.380,98.5915,925.522,220.169,40.379,33.264,-5.031,-84.757
3.400,98.5774,930.446,218.452,41.624,30.240,-15.345,-85.889
3.420,98.5546,935.721,216.923,33.975,-17.966,21.886,-76.428
3.440,98.5374,940.872,215.029,48.028,-31.307,24.905,-94.707
3.460,98.5254,945.534,213.802,26.149,-8.360,9.811,-61.353
3.480,98.5026,950.591,212.616,19.033,12.274,-14.842,-59.278
3.500,98.4835,955.721,210.604,61.903,-9.961,27.420,-100.633
3.520,98.4672,960.693,209.169,26.682,29.173,-1.258,-71.755
3.540,98.4500,965.604,207.966,17.966,-9.072,-19.370,-60.134
3.560,98.4334,970.429,206.522,35.576,16.721,-7.295,-72.181
3.580,98.4182,975.066,204.907,27.572,23.658,-32.200,-80.746
3.600,98.4081,979.167,203.034,36.288,-47.672,13.836,-93.689
3.620,98.3900,983.426,201.345,51.586,7.471,3.522,-84.443
3.640,98.3677,988.148,199.763,40.557,2.490,23.395,-79.087
3.660,98.3530,992.690,198.273,31.129,-28.283,4.277,-74.476
3.680,98.3328,997.511,196.520,53.720,8.894,-10.566,-87.667
3.700,98.3217,1001.873,194.820,3.380,38.956,35.470,-84.993
3.720,98.3076,1006.082,192.933,34.509,-16.365,-49.055,-94.370
3.740,98.2879,1010.587,191.550,18.322,31.841,-3.773,-69.129
3.760,98.2763,1014.740,190.009,34.509,22.769,-17.358,-77.040
3.780,98.2642,1018.633,188.151,35.754,42.158,-25.156,-92.933
3.800,98.2460,1022.772,186.799,29.173,8.538,-18.112,-67.584
3.820,98.2293,1027.021,185.614,16.009,11.740,-18.364,-59.244
3.840,98.2086,1031.674,184.353,19.923,9.961,21.383,-63.077
3.860,98.1924,1036.329,183.431,9.961,-5.692,-7.798,-46.072
3.880,98.1716,1041.333,182.008,23.480,29.173,-10.817,-71.179
3.900,98.1565,1046.201,180.433,30.774,15.120,31.445,-78.723
3.920,98.1419,1050.916,179.085,22.591,11.562,24.402,-67.406
3.940,98.1318,1055.148,177.557,28.105,19.923,-27.672,-76.388
3.960,98.1146,1059.512,175.839,45.360,8.005,27.672,-85.934
3.980,98.0944,1064.218,174.982,8.183,6.759,0.000,-42.813
4.000,98.0854,1068.366,173.557,28.995,15.476,21.131,-71.273
4.020,98.0716,1072.396,172.464,11.562,10.139,-16.352,-54.647
4.040,98.0550,1076.550,171.268,14.231,14.586,-18.616,-59.801
4.060,98.0429,1080.475,171.588,-5.159,3.736,-47.797,16.019
4.080,98.0272,1084.476,170.410,24.548,0.356,-10.566,-58.927
4.100,98.0140,1088.357,168.924,37.533,14.764,-12.075,-74.301
4.120,98.0045,1091.861,168.080,7.649,4.803,-4.277,-42.193
4.140,97.9832,1095.950,166.716,29.350,5.514,20.125,-68.212
4.160,97.9711,1099.844,165.863,6.582,8.005,-1.006,-42.612
4.180,97.9529,1104.043,164.362,38.956,-5.870,16.855,-75.050
4.200,97.9444,1107.758,163.316,12.985,7.649,13.333,-52.322
4.220,97.9277,1111.696,162.517,6.937,-1.601,-3.019,-39.933
4.240,97.9140,1115.592,161.411,8.894,2.846,21.131,-55.303
4.260,97.8954,1119.840,160.245,19.923,12.096,-11.823,-58.335
4.280,97.8873,1123.580,159.272,3.913,1.779,-15.848,-48.621
4.300,97.8731,1127.353,157.967,24.726,-21.524,4.277,-65.259
4.320,97.8600,1131.078,156.623,31.841,-9.428,11.069,-67.203
4.340,97.8484,1134.650,155.592,17.966,1.245,7.044,-51.538
4.360,97.8388,1137.945,154.439,2.668,-12.274,-22.138,-57.653
4.380,97.8256,1141.278,153.323,23.125,2.846,3.773,-55.803
4.400,97.8120,1144.694,152.274,15.654,3.558,-12.327,-52.439
4.420,97.8015,1147.944,151.382,12.096,1.067,-2.516,-44.601
4.440,97.7827,1151.690,150.095,10.317,9.606,-28.930,-64.381
4.460,97.7721,1155.238,149.247,5.692,-1.423,8.302,-42.366
4.480,97.7585,1158.854,148.392,10.317,-1.779,1.509,-42.778
4.500,97.7484,1162.257,147.357,16.009,-9.250,-6.289,-51.730
4.520,97.7302,1166.106,146.321,17.077,9.606,0.000,-51.793
4.540,97.7145,1170.142,145.346,16.543,-0.534,0.503,-48.759
4.560,97.7019,1174.098,144.293,15.120,11.562,7.547,-52.676
4.580,97.6953,1177.520,143.281,6.404,-14.942,-8.553,-50.569
4.600,97.6811,1181.073,142.203,19.923,2.135,8.302,-53.888
4.620,97.6715,1184.389,141.186,18.500,-2.135,1.509,-50.883
4.640,97.6589,1187.735,140.817,-6.048,8.894,-8.553,-18.458
4.660,97.6478,1191.000,139.792,17.077,-5.336,-6.541,-51.249
4.680,97.6357,1194.267,138.921,9.072,-0.178,-6.792,-43.534
4.700,97.6215,1197.703,137.723,1.601,27.216,-4.780,-59.879
4.720,97.6059,1201.396,136.945,3.736,4.091,-3.773,-38.903
4.740,97.5948,1204.965,135.948,12.807,-8.894,8.302,-49.865
4.760,97.5801,1208.694,134.923,15.654,10.317,-3.522,-51.276
4.780,97.5690,1212.294,134.473,-0.712,4.981,-8.302,-22.493
4.800,97.5609,1215.545,133.383,19.389,-5.514,9.559,-54.510
4.820,97.5539,1218.422,132.219,17.788,-9.961,16.100,-58.178
4.840,97.5417,1221.376,131.035,5.159,26.504,0.000,-59.202
4.860,97.5261,1224.669,130.029,17.255,-3.024,-4.528,-50.293
4.880,97.5170,1227.755,128.933,15.831,10.139,12.578,-54.820
4.900,97.5094,1230.548,128.052,10.139,-0.889,-6.037,-44.034
4.920,97.4953,1233.602,127.083,15.476,3.380,-3.522,-48.427
4.940,97.4817,1236.845,126.131,0.534,-12.985,-8.302,-47.621
4.960,97.4715,1239.984,125.290,4.625,8.538,-1.509,-42.027
4.980,97.4599,1243.152,124.164,19.033,-14.764,1.258,-56.321
5.000,97.4488,1246.307,122.915,18.144,24.192,-1.006,-62.457
5.020,97.4412,1249.180,122.124,6.937,0.889,-2.264,-39.551
5.040,97.4326,1251.890,121.117,12.630,7.293,-10.817,-50.358
5.060,97.4225,1254.586,120.294,7.115,-5.336,-0.755,-41.126
5.080,97.4139,1257.161,119.420,4.803,8.716,-5.786,-43.712
5.100,97.4064,1259.561,118.623,7.649,0.178,0.000,-39.851
5.120,97.3958,1262.050,117.689,13.875,1.779,-3.773,-46.688
5.140,97.3821,1264.856,116.826,4.803,-9.783,1.006,-43.145
5.160,97.3730,1267.590,115.955,10.851,3.380,0.503,-43.576
5.180,97.3619,1270.423,115.140,5.514,4.447,4.780,-40.746
5.200,97.3559,1272.948,114.340,6.937,-1.245,3.270,-39.970
5.220,97.3432,1275.724,113.427,7.827,-7.471,-8.050,-45.686
5.240,97.3361,1278.292,112.640,6.048,2.846,-2.516,-39.342
5.260,97.3250,1280.991,111.779,7.649,-4.091,-6.541,-43.064
5.280,97.3150,1283.727,110.852,5.159,-9.783,-8.805,-46.337
5.300,97.3008,1286.813,110.045,4.625,-4.981,-4.528,-40.367
5.320,97.2963,1289.451,109.033,17.610,-4.803,-2.013,-50.564
5.340,97.2892,1291.907,108.196,7.471,-4.981,3.522,-41.845
5.360,97.2806,1294.324,107.415,4.091,5.159,-2.013,-39.085
5.380,97.2700,1296.868,106.479,12.452,-7.115,-2.767,-46.806
5.400,97.2569,1299.717,105.708,5.514,-3.024,-0.755,-38.534
5.420,97.2483,1302.479,104.911,6.759,-2.490,-2.516,-39.830
5.440,97.2423,1304.970,104.007,11.918,-5.159,-1.006,-45.225
5.460,97.2322,1307.540,103.203,5.514,0.178,-5.786,-40.195
5.480,97.2240,1310.031,102.324,11.207,-3.024,-1.761,-43.940
5.500,97.2124,1312.722,101.433,10.317,-6.759,1.006,-44.575
5.520,97.2023,1315.469,100.518,12.452,-5.336,-0.252,-45.749
5.540,97.1948,1318.067,99.712,1.067,6.048,-5.283,-40.301
5.560,97.1826,1320.893,98.954,3.024,0.178,-4.780,-37.859
5.580,97.1761,1323.482,98.062,8.183,-7.115,6.037,-44.611
5.600,97.1685,1325.942,97.265,7.471,-1.067,-1.258,-39.851
5.620,97.1599,1328.382,96.430,8.894,-2.490,-2.516,-41.773
5.640,97.1513,1330.798,95.671,5.692,0.356,0.755,-37.953
5.660,97.1448,1333.040,94.798,8.716,-7.293,1.006,-43.609
5.680,97.1397,1335.021,93.965,8.360,4.091,-1.761,-41.673
5.700,97.1250,1337.527,93.193,5.692,-2.846,-0.755,-38.609
5.720,97.1195,1339.782,92.405,6.582,-2.668,-1.006,-39.373
5.740,97.1124,1341.943,91.643,3.558,-1.423,-4.528,-38.132
5.760,97.1079,1343.826,90.895,2.135,1.423,-4.528,-37.404
5.780,97.0993,1345.799,90.069,8.716,-0.178,-2.516,-41.274
5.800,97.0882,1348.044,89.291,6.226,-0.178,-2.516,-38.917
5.820,97.0796,1350.330,88.466,8.894,-1.423,-0.503,-41.221
5.840,97.0675,1352.925,87.624,8.716,-1.957,4.277,-42.104
5.860,97.0604,1355.397,86.839,6.582,0.178,-2.516,-39.248
5.880,97.0574,1357.447,86.049,3.736,-4.803,-4.025,-39.495
5.900,97.0463,1359.767,85.223,7.115,-4.981,2.767,-41.315
5.920,97.0387,1362.047,84.409,6.226,-0.178,5.786,-40.701
5.940,97.0321,1364.214,83.607,7.293,-3.024,-0.252,-40.099
5.960,97.0265,1366.208,82.773,5.870,-7.293,1.761,-41.726
5.980,97.0149,1368.524,82.043,3.380,-2.312,-1.258,-36.484
6.000,97.0084,1370.724,81.265,6.582,-0.889,-1.006,-38.917
6.020,97.0014,1372.865,80.513,3.913,2.135,-3.019,-37.584
6.040,96.9927,1375.078,79.729,4.447,-1.957,-5.031,-39.194
6.060,96.9856,1377.234,78.982,4.981,1.067,-0.755,-37.349
6.080,96.9801,1379.227,78.267,2.668,1.601,-1.761,-35.775
6.100,96.9731,1381.196,77.491,6.582,0.178,-0.252,-38.789
6.120,96.9685,1382.955,76.769,2.668,-0.534,-2.767,-36.081
6.140,96.9610,1384.772,75.986,4.803,-1.601,-4.780,-39.162
6.160,96.9523,1386.725,75.221,5.692,1.423,-1.509,-38.258
6.180,96.9457,1388.640,74.448,5.159,0.889,-3.773,-38.653
6.200,96.9442,1390.134,73.703,4.981,0.712,0.252,-37.238
6.220,96.9382,1391.624,72.937,5.336,-2.846,0.755,-38.295
6.240,96.9286,1393.387,72.178,4.981,1.423,-2.516,-37.959
6.260,96.9190,1395.394,71.430,5.159,-0.534,0.252,-37.392
6.280,96.9160,1397.103,70.705,3.913,-0.712,-0.755,-36.249
6.300,96.9089,1398.868,69.979,3.736,1.601,-0.503,-36.295
6.320,96.9023,1400.648,69.212,5.159,-3.024,1.509,-38.367
6.340,96.8927,1402.675,68.500,2.490,-2.135,0.755,-35.566
6.360,96.8918,1404.250,67.774,3.024,-0.178,-2.767,-36.303
6.380,96.8801,1406.265,67.061,1.957,-2.668,1.006,-35.658
6.400,96.8776,1407.948,66.342,3.380,1.601,-0.503,-35.973
6.420,96.8726,1409.547,65.628,3.380,0.534,0.755,-35.704
6.440,96.8650,1411.274,64.913,2.668,-1.957,1.258,-35.740
6.460,96.8584,1413.033,64.140,5.514,-3.024,1.509,-38.668
6.480,96.8503,1414.936,63.441,2.668,-0.178,-0.503,-34.921
6.500,96.8458,1416.690,62.735,3.024,-0.534,-0.503,-35.312
6.520,96.8453,1418.009,62.007,3.913,-1.067,1.006,-36.379
6.540,96.8382,1419.460,61.309,2.490,-1.067,0.252,-34.921
6.560,96.8326,1420.918,60.614,2.490,-0.356,0.503,-34.765
6.580,96.8251,1422.536,59.894,2.135,-2.846,1.258,-35.973
6.600,96.8180,1424.254,59.168,3.202,-2.490,-0.755,-36.326
6.620,96.8124,1425.944,58.447,3.202,-1.067,1.761,-36.007
6.640,96.8104,1427.335,57.681,4.269,-3.202,3.019,-38.331
6.660,96.8003,1429.098,56.951,2.846,-1.067,3.019,-36.484
6.680,96.7937,1430.908,56.227,2.312,-3.024,1.258,-36.209
6.700,96.7897,1432.558,55.525,1.779,-1.423,-1.761,-35.079
6.720,96.7862,1434.038,54.824,2.668,-0.178,1.006,-35.057
6.740,96.7822,1435.406,54.123,1.957,-1.957,0.755,-35.068
6.760,96.7781,1436.686,53.403,2.846,-2.135,1.258,-35.973
6.780,96.7705,1438.170,52.713,1.957,0.178,-1.258,-34.533
6.800,96.7675,1439.475,52.004,3.024,-0.889,-0.755,-35.441
6.820,96.7680,1440.355,51.302,2.312,-0.178,-1.761,-35.112
6.840,96.7599,1441.548,50.611,2.312,-0.178,-0.252,-34.533
6.860,96.7498,1443.161,49.910,1.957,-0.534,-2.013,-35.057
6.880,96.7463,1444.633,49.226,1.779,-0.712,-0.503,-34.181
6.900,96.7422,1446.025,48.539,0.712,0.356,-2.013,-34.364
6.920,96.7357,1447.539,47.854,1.957,0.534,0.000,-34.228
6.940,96.7327,1448.886,47.170,1.423,-1.423,0.000,-34.213
6.960,96.7271,1450.290,46.482,1.779,0.356,1.258,-34.407
6.980,96.7240,1451.547,45.873,-0.178,-0.889,-1.509,-30.439
7.000,96.7200,1452.760,45.191,1.779,0.000,-0.755,-34.132
7.020,96.7216,1453.503,44.511,1.245,-0.178,-1.258,-33.979
7.040,96.7089,1454.949,43.823,0.534,-1.245,-1.761,-34.422
7.060,96.7074,1456.136,43.142,1.067,-1.067,-1.006,-34.014
7.080,96.7039,1457.256,42.471,1.245,-0.178,-0.503,-33.555
7.100,96.6958,1458.679,41.795,0.889,0.534,-1.258,-33.830
7.120,96.6902,1460.164,41.125,0.889,0.534,-0.755,-33.483
7.140,96.6872,1461.503,40.447,0.889,-1.245,-0.755,-33.906
7.160,96.6846,1462.683,39.786,0.712,-0.356,0.252,-33.034
7.180,96.6817,1463.759,39.121,0.889,-0.534,0.252,-33.267
7.200,96.6796,1464.675,38.455,0.534,-0.534,0.755,-33.267
7.220,96.6695,1466.086,37.765,1.601,-1.601,0.503,-34.519
7.240,96.6680,1467.252,37.089,1.067,-1.067,0.503,-33.791
7.260,96.6594,1468.760,36.423,0.356,-0.712,0.755,-33.297
7.280,96.6604,1469.810,35.756,0.534,-0.889,0.503,-33.353
7.300,96.6599,1470.594,35.152,-0.178,-1.957,0.000,-30.235
7.320,96.6508,1471.817,34.562,-1.067,-1.779,1.761,-29.479
7.340,96.6498,1472.794,33.867,0.178,-2.312,1.006,-34.728
7.360,96.6488,1473.555,33.171,0.534,-0.534,2.516,-34.826
7.380,96.6417,1474.609,32.475,0.178,-1.601,2.013,-34.778
7.400,96.6392,1475.564,31.772,0.178,-1.601,2.516,-35.187
7.420,96.6357,1476.515,31.128,0.000,-1.779,3.019,-32.200
7.440,96.6337,1477.346,30.456,0.178,-0.534,1.258,-33.578
7.460,96.6301,1478.202,29.847,-0.178,-0.889,1.509,-30.439
7.480,96.6261,1479.113,29.203,0.000,0.000,1.006,-32.200
7.500,96.6281,1479.610,28.609,-0.356,-1.423,2.013,-29.710
7.520,96.6215,1480.421,27.993,-0.178,-0.534,1.258,-30.822
7.540,96.6190,1481.190,27.386,-0.178,-0.534,1.761,-30.351
7.560,96.6134,1482.164,26.702,1.067,-1.067,1.258,-34.165
7.580,96.6129,1482.921,26.058,0.000,-0.356,1.006,-32.200
7.600,96.6119,1483.534,25.455,-0.712,-0.712,1.761,-30.172
7.620,96.6039,1484.572,24.851,-0.712,-1.423,1.258,-30.172
7.640,96.6069,1485.116,24.175,0.534,-0.178,1.509,-33.811
7.660,96.6029,1485.788,23.561,-0.356,-0.712,1.258,-30.712
7.680,96.5988,1486.575,22.886,0.178,-0.889,1.258,-33.751
7.700,96.5978,1487.225,22.281,-0.356,0.712,1.761,-30.268
7.720,96.5938,1487.995,21.672,-1.423,-0.356,1.006,-30.421
7.740,96.5932,1488.596,21.045,-0.356,0.000,0.755,-31.366
7.760,96.5862,1489.561,20.422,-0.889,-0.178,0.503,-31.163
7.780,96.5831,1490.530,19.803,-1.245,-0.178,0.252,-30.917
7.800,96.5821,1491.338,19.166,-0.178,-0.178,0.252,-31.844
7.820,96.5827,1491.890,18.543,-0.712,0.000,0.755,-31.163
7.840,96.5781,1492.624,17.934,-1.601,-0.534,0.503,-30.439
7.860,96.5771,1493.234,17.324,-0.356,-0.712,1.509,-30.494
7.880,96.5715,1494.094,16.714,-1.245,-0.534,1.006,-30.512
7.900,96.5695,1494.894,16.101,-0.178,-0.889,1.258,-30.649
7.920,96.5695,1495.486,15.493,-0.712,-1.067,1.258,-30.403
7.940,96.5629,1496.410,14.849,0.000,-1.067,0.503,-32.200
7.960,96.5639,1497.028,14.205,0.000,-1.423,2.013,-32.200
7.980,96.5589,1497.854,13.590,-0.712,-0.712,1.006,-30.777
8.000,96.5594,1498.431,12.992,-1.067,-1.779,1.006,-29.894
8.020,96.5528,1499.340,12.398,-1.423,-1.779,1.006,-29.710
8.040,96.5447,1500.653,11.856,-4.447,-1.601,2.013,-27.063
8.060,96.5468,1501.522,32.205,-122.027,-53.364,67.419,149.277
8.080,96.5450,1502.346,31.393,-0.178,-728.425,-515.200,892.207
8.100,96.5392,1503.176,30.554,119.536,18.144,7.547,121.141
8.120,96.5332,1504.013,29.733,215.237,509.097,-107.166,563.020
8.140,96.5307,1505.963,28.893,511.232,-217.015,-38.237,556.701
8.160,96.5766,1506.148,28.119,-2.490,-32.374,-5.283,32.897
8.180,96.5721,1506.924,27.272,-9.606,-20.278,-25.156,33.709
8.200,96.5549,1507.256,26.388,-61.903,5.692,-94.588,113.186
8.220,96.5498,1508.098,25.538,-56.744,-45.716,-58.866,93.675
8.240,96.5655,1509.885,24.761,-55.855,80.402,33.961,103.623
8.260,96.5518,1512.173,23.935,-9.606,-14.942,-57.356,60.044
8.280,96.5498,1514.979,23.143,0.178,-73.465,-69.934,101.430
8.300,96.5554,1516.791,22.275,-25.615,-35.221,-60.123,74.239
8.320,96.5670,1516.285,21.422,-119.359,19.745,-79.494,144.760
8.340,96.5664,1516.619,20.608,-110.109,-17.966,14.591,112.515
8.360,96.5281,1516.034,19.784,-45.004,-91.253,-2.264,101.772
8.380,96.5084,1516.596,18.912,-26.504,702.098,182.886,726.011
8.400,96.5215,1516.517,18.112,21.346,103.171,-178.861,207.584
8.420,96.5588,1515.081,17.303,-56.211,283.899,-214.080,359.984
8.440,96.5474,1517.075,16.521,88.941,-287.457,13.584,301.208
8.460,96.5451,1516.722,15.726,-0.178,-728.425,-515.200,892.207
8.480,96.4693,1516.020,14.977,-96.768,3.202,67.167,117.837
8.500,96.4794,1516.389,14.228,-97.123,-28.817,14.591,102.353
8.520,96.4869,1516.162,13.430,-66.350,-45.360,30.691,86.033
8.540,96.4874,1515.975,12.613,-73.643,-39.134,39.998,92.491
8.560,96.4930,1515.430,11.782,-106.729,-32.374,28.175,115.035
8.580,96.4955,1514.830,11.051,-116.335,-51.941,-36.728,132.592
8.600,96.4960,1514.341,10.370,-171.834,-164.363,71.947,248.431
8.620,96.4909,1514.387,9.776,-212.746,-60.480,-5.786,221.252
8.640,96.4925,1514.376,9.166,-176.992,-69.907,-43.520,195.211
8.660,96.4915,1514.515,8.462,-88.051,-61.013,5.283,107.255
8.680,96.4935,1514.544,7.778,-53.720,-23.836,11.069,59.804
8.700,96.4950,1514.514,7.085,-42.336,-10.673,8.302,44.443
8.720,96.4986,1514.274,6.373,-53.364,-16.365,0.000,55.817
8.740,96.4995,1514.054,5.648,-71.686,-30.062,0.000,77.734
8.760,96.4985,1513.999,4.892,-87.696,-29.350,-0.252,92.477
8.780,96.4965,1514.165,4.135,-100.503,-8.005,-22.389,103.277
8.800,96.4981,1514.237,3.355,-76.489,-27.750,7.798,81.740
8.820,96.4976,1514.382,2.596,-61.191,-64.393,63.394,109.131
8.840,96.5031,1514.117,1.746,-42.336,-36.999,60.123,82.317
8.860,96.4975,1514.360,0.891,-81.114,5.692,-28.678,86.222
8.880,96.4965,1514.679,0.023,-69.907,9.783,-20.628,73.541
8.900,96.4970,1514.940,-0.835,-58.345,-39.134,-4.277,70.384
8.920,96.4976,1515.139,-1.658,-16.899,-55.677,-1.761,58.212
8.940,96.4961,1515.442,-2.515,-23.658,-43.581,-7.547,50.159
8.960,96.4935,1515.909,-3.319,-38.422,-18.144,-14.339,44.845
8.980,96.4936,1516.307,-4.107,256.149,-243.342,-218.608,415.472
9.000,96.4976,1516.330,-4.859,-31.841,23.658,13.836,42.012
9.020,96.4996,1516.185,-5.661,-131.810,67.061,72.198,164.571
9.040,96.4966,1516.293,-6.450,-147.286,-66.172,73.456,177.391
9.060,96.5001,1516.100,-7.266,-55.677,-102.638,13.081,117.497
9.080,96.4981,1516.082,-8.178,-56.211,-57.989,-59.620,100.384
9.100,96.5006,1515.862,-8.238,-42.336,-18.855,-21.131,50.935
9.120,96.5027,1515.509,-8.198,-115.801,-2.312,-48.803,125.686
9.140,96.5067,1514.891,-8.207,-102.460,19.567,-67.922,124.476
9.160,96.4981,1515.029,-7.871,-175.569,52.119,-28.930,185.413
9.180,96.5057,1514.560,-7.802,-82.893,34.509,-124.775,153.723
9.200,96.5097,1513.855,-7.724,-48.917,-53.898,47.042,86.665
9.220,96.5042,1513.692,-7.505,-143.906,-51.052,-53.080,161.656
9.240,96.5022,1513.724,-7.181,-168.987,-12.807,4.277,169.526
9.260,96.5062,1513.450,-6.978,-271.803,-152.978,-89.305,324.430
9.280,96.5077,1513.118,-6.663,-17.432,14.231,-49.306,54.199
9.300,96.5128,1512.462,-6.419,3.736,-8.716,-6.289,11.379
9.320,96.5087,1512.238,-6.259,-91.075,-34.153,-26.414,100.791
9.340,96.5102,1511.957,-6.169,-73.109,-34.331,-33.709,87.521
9.360,96.5097,1511.783,-6.110,-73.287,-28.817,12.075,79.669
9.380,96.5138,1511.349,-6.511,-55.143,-34.865,-4.528,65.398
9.400,96.5097,1511.321,-6.661,-18.855,3.558,-7.295,20.528
9.420,96.5108,1511.250,-6.884,-8.360,14.764,-3.773,17.381
9.440,96.5087,1511.377,-7.447,-3.202,29.528,0.252,29.702
9.460,96.5097,1511.433,-7.524,1.423,10.673,2.013,10.954
9.480,96.5057,1511.821,-7.313,-121.137,4.803,-13.584,121.991
9.500,96.5072,1512.054,-7.356,-60.124,-80.047,-9.308,100.544
9.520,96.5087,1512.150,-7.581,-196.737,-56.922,-4.277,204.851
9.540,96.5153,1511.734,-7.918,-107.796,-48.028,-33.206,122.594
9.560,96.5173,1511.235,-8.205,-80.580,-68.129,32.452,110.398
9.580,96.5092,1511.451,-8.471,-80.047,-34.153,-16.855,88.645
9.600,96.5016,1512.234,-8.666,-29.706,-4.447,-17.861,34.946
9.620,96.4900,1513.808,-8.771,-20.278,-10.673,2.516,23.053
9.640,96.4976,1514.558,-8.795,-6.937,-4.091,-7.044,10.700
9.660,96.5032,1514.750,-8.918,-16.899,-10.495,-12.327,23.402
9.680,96.5027,1514.926,-9.114,-8.716,0.534,-23.144,24.736
9.700,96.5057,1514.813,-9.548,-6.759,0.000,-19.370,20.516
9.720,96.5067,1514.614,-10.045,-1.423,-13.875,-4.277,14.588
9.740,96.5102,1514.148,-10.620,-8.005,-43.581,4.025,44.492
9.760,96.5123,1513.570,-11.117,-71.153,-40.557,-47.545,94.700
9.780,96.5178,1512.635,-11.571,269.846,-320.365,325.522,530.486
9.800,96.5218,1511.522,-12.012,-18.144,-14.586,-27.420,35.970
9.820,96.5183,1510.852,-12.514,-107.974,-36.466,-8.805,114.305
9.840,96.5264,1509.672,-13.020,-76.667,-67.417,-25.911,105.329
9.860,96.5299,1508.419,-13.266,-45.360,-15.120,-47.294,67.252
9.880,96.5304,1507.350,-13.427,-55.677,-11.918,-7.547,57.436
9.900,96.5335,1506.255,-13.573,-65.105,-36.999,4.025,74.992
9.920,96.5289,1505.734,-13.772,-64.037,-45.538,-30.942,84.450
9.940,96.5304,1505.239,-13.898,-77.378,-37.533,-21.634,88.680
9.960,96.5289,1505.003,-14.109,-75.244,-30.418,-0.252,81.160
9.980,96.5223,1505.383,-14.279,-64.037,-40.557,-10.314,76.499
10.000,96.5203,1505.933,-14.312,-59.590,-42.869,-16.100,75.153
10.020,96.5218,1506.343,-14.464,-76.667,-32.552,1.258,83.301
10.040,96.5244,1506.544,-14.635,-89.830,-26.149,-0.755,93.562
10.060,96.5345,1505.980,-14.918,-95.700,-40.201,-17.861,105.327
10.080,96.5395,1505.150,-15.129,-87.518,-44.115,-6.792,98.242
10.100,96.5426,1504.250,-15.227,-114.378,-43.225,7.798,122.522
10.120,96.5294,1504.548,-15.381,-180.550,-51.052,-19.622,188.652
10.140,96.5355,1504.382,-15.545,-176.458,-96.412,6.541,201.186
10.160,96.5334,1504.442,-15.743,-125.051,-0.534,514.948,529.915
10.180,96.5208,1505.510,-15.853,-115.267,-106.017,-30.439,159.539
10.200,96.5254,1506.101,-16.127,-108.508,-93.566,70.689,159.767
10.220,96.5268,1506.508,-16.417,-59.946,-3.380,-13.836,61.615
10.240,96.5208,1507.335,-16.538,-88.941,92.143,81.255,151.668
10.260,96.5208,1508.040,-16.685,-28.995,-5.159,-83.267,88.322
10.280,96.5223,1508.517,-16.814,-23.302,14.053,-19.873,33.696
10.300,96.5344,1507.967,-16.957,-7.471,9.250,-10.314,15.740
10.320,96.5404,1507.012,-17.104,1.423,2.135,6.037,6.560
10.340,96.5389,1506.303,-17.140,-50.874,-77.201,-138.611,166.617
10.360,96.5445,1505.263,-17.270,-61.191,-63.682,164.270,186.506
10.380,96.5390,1504.810,-17.400,-5.870,5.514,-32.955,33.925
10.400,96.5289,1505.216,-17.580,-4.269,-8.894,-34.716,36.090
10.420,96.5248,1505.888,-17.702,-36.999,-20.990,-36.728,56.200
10.440,96.5278,1506.234,-17.823,-66.883,8.538,8.302,67.935
10.460,96.5617,1503.912,-17.846,215.770,-455.199,137.856,522.271
10.480,96.5516,1502.723,-17.892,-23.480,16.365,-33.206,43.838
10.500,96.5597,1501.112,-17.932,-24.903,-28.817,-48.048,61.313
10.520,96.5733,1498.728,-17.928,-56.566,-51.230,-35.219,84.051
10.540,96.5808,1496.171,-18.017,-58.345,-54.076,-10.063,80.185
10.560,96.5763,1494.424,-18.133,-57.456,-49.273,38.489,84.914
10.580,96.5698,1493.547,-18.290,-85.561,-54.254,-61.884,118.718
10.600,96.5602,1493.654,-18.369,-129.676,-23.658,-21.886,133.621
10.620,96.5500,1494.644,-18.439,-120.248,-6.404,6.037,120.570
10.640,96.5465,1495.860,-18.421,-110.820,-46.783,-24.905,122.841
10.660,96.5581,1496.089,-18.434,-73.643,-46.605,-4.025,87.244
10.680,96.5693,1495.498,-18.424,-59.412,-27.038,-12.578,66.476
10.700,96.5975,1492.880,-18.376,-37.177,-21.524,0.000,42.958
10.720,96.6056,1490.100,-18.323,-14.764,-15.476,13.836,25.474
10.740,96.6137,1487.207,-18.257,-4.447,-17.966,3.522,18.840
10.760,96.6056,1485.490,-18.183,5.870,-11.207,-2.264,12.852
10.780,96.6035,1484.325,-18.081,6.582,-9.072,0.503,11.219
10.800,96.6060,1483.288,-18.007,-68.662,-7.115,-44.023,81.873
10.820,96.6141,1481.936,-17.949,-183.218,23.480,37.986,188.582
10.840,96.6175,1480.675,-17.880,-142.305,-156.536,46.539,216.611
10.860,96.5827,1482.445,-17.815,-251.525,-146.574,-50.816,295.518
10.880,96.5796,1484.343,-17.784,-238.895,-43.581,50.313,247.995
10.900,96.5806,1486.003,-17.795,-181.083,-6.048,-82.009,198.880
10.920,96.5881,1486.924,-17.876,-167.387,43.225,-9.559,173.142
10.940,96.5805,1488.359,-17.902,-132.700,62.259,-124.775,192.494
10.960,96.5941,1488.573,-17.929,-115.801,31.485,-112.952,164.801
10.980,96.5936,1488.818,-17.908,-82.181,39.845,-112.448,144.866
11.000,96.5790,1490.174,-17.833,-41.624,70.797,-100.877,130.080
11.020,96.5910,1490.396,-17.759,-24.370,-22.947,-100.625,106.046
11.040,96.5930,1490.417,-17.612,-9.428,-140.704,-79.494,161.882
11.060,96.6117,1488.973,-17.535,-24.548,-112.421,151.189,189.998
11.080,96.6016,1488.506,-17.547,-181.617,22.591,66.161,194.608
11.100,96.5920,1488.842,-17.586,-139.637,-25.437,-107.669,178.152
11.120,96.5981,1488.647,-17.627,-48.562,-13.697,56.853,76.014
11.140,96.5991,1488.394,-17.547,-33.442,56.566,18.112,68.163
11.160,96.6012,1488.009,-17.481,-13.697,21.524,10.817,27.711
11.180,96.6012,1487.672,-17.412,-54.610,47.850,35.722,80.919
11.200,96.6153,1486.290,-17.287,-90.008,-30.596,76.978,122.324
11.220,96.6153,1485.112,-17.197,10.495,-52.119,3.773,53.299
11.240,96.6027,1485.096,-17.139,9.428,-3.736,4.780,11.211
11.260,96.6098,1484.555,-16.967,0.178,-1.245,-11.320,11.390
11.280,96.6057,1484.431,-16.750,-55.499,-15.298,-67.419,88.654
11.300,96.6077,1484.198,-16.458,-41.269,20.990,-23.395,51.875
11.320,96.6052,1484.220,-16.264,-47.316,42.692,-28.678,69.885
11.340,96.5977,1484.847,-16.128,-35.043,43.581,1.258,55.936
11.360,96.6093,1484.508,-15.939,-21.346,-25.259,39.747,51.706
11.380,96.6117,1484.046,-15.835,-14.764,-44.293,34.213,57.882
11.400,96.6158,1483.359,-15.722,-33.264,-74.532,-16.603,83.290
11.420,96.6148,1482.874,-15.526,-42.158,-27.216,-49.055,70.174
11.440,96.6158,1482.413,-15.284,-108.152,13.875,-58.866,123.913
11.460,96.6082,1482.639,-15.045,-10.317,-3.913,-81.003,81.751
11.480,96.6118,1482.589,-15.072,-23.125,-128.786,-39.998,136.823
11.500,96.6173,1482.149,-15.010,-30.240,-56.566,-26.666,69.464
11.520,96.6128,1482.153,-14.981,-58.345,-25.971,-65.909,91.775
11.540,96.6244,1481.290,-15.123,-53.542,-24.370,-26.163,64.383
11.560,96.6234,1480.662,-15.292,-31.307,-19.567,5.031,37.260
11.580,96.6285,1479.777,-15.410,2.490,-8.894,-1.258,9.321
11.600,96.6294,1478.988,-15.512,-9.606,12.096,6.037,16.584
11.620,96.6385,1477.662,-15.442,-13.875,25.971,-14.339,32.750
11.640,96.6426,1476.278,-15.148,-1.957,-0.534,19.622,19.726
11.660,96.6415,1475.246,-14.755,16.543,-15.476,117.731,119.891
11.680,96.6360,1474.873,-14.481,-14.942,-8.538,20.377,26.672
11.700,96.6345,1474.752,-14.340,-10.673,-8.183,4.277,14.112
11.720,96.6335,1474.806,-14.515,-9.428,-0.889,1.761,9.632
11.740,96.6335,1474.927,-14.839,-7.115,11.740,11.069,17.635
11.760,96.6315,1475.255,-15.311,0.534,-89.119,-88.802,125.810
11.780,96.6284,1475.834,-15.681,-175.925,302.221,457.341,575.715
11.800,96.6284,1476.380,-15.878,-15.298,2.135,-37.734,40.773
11.820,96.6284,1476.885,-16.069,-17.255,53.898,-0.252,56.593
11.840,96.6329,1476.995,-16.338,0.534,-1.245,-19.370,19.418
11.860,96.6274,1477.541,-16.601,-0.712,-3.202,-16.855,17.171
11.880,96.6299,1477.827,-16.524,-17.077,-29.884,16.855,38.324
11.900,96.6365,1477.570,-16.428,-34.865,-59.768,-119.492,138.080
11.920,96.6441,1476.767,-16.288,-5.159,-16.899,4.277,18.179
11.940,96.6441,1476.090,-16.230,59.057,-62.259,-69.180,110.225
11.960,96.6451,1475.445,-16.137,-3.380,-3.380,-16.352,17.036
11.980,96.6430,1475.070,-16.065,-7.293,-0.178,-7.044,10.141
12.000,96.6456,1474.575,-16.005,-4.091,-17.966,-60.878,63.606
12.020,96.6501,1473.824,-15.822,2.135,-4.981,-17.106,17.944
12.040,96.6425,1473.801,-15.738,-12.096,-101.748,-103.895,145.922
12.060,96.6506,1473.184,-15.624,-75.244,-10.139,125.781,146.920
12.080,96.6537,1472.452,-15.684,-3.913,3.202,15.094,15.918
12.100,96.6542,1471.824,-15.703,-1.423,1.779,1.006,2.490
12.120,96.6537,1471.371,-15.636,10.139,-15.120,-12.075,21.845
12.140,96.6547,1470.950,-15.680,-17.788,13.519,50.816,55.510
12.160,96.6526,1470.793,-15.721,-14.053,34.331,-16.603,40.642
12.180,96.6567,1470.394,-15.764,0.712,0.356,-30.942,30.952
12.200,96.6653,1469.432,-15.817,3.913,5.692,-7.798,10.418
12.220,96.6678,1468.467,-15.978,3.736,9.428,-12.578,16.157
12.240,96.6729,1467.310,-16.129,-6.404,13.163,8.553,16.954
12.260,96.6683,1466.738,-16.148,-21.879,27.216,12.075,36.949
12.280,96.6658,1466.518,-16.206,-62.792,16.187,7.798,65.312
12.300,96.6582,1466.985,-16.233,-24.903,-28.105,3.019,37.672
12.320,96.6602,1467.291,-16.256,-12.630,-20.101,-4.025,24.078
12.340,96.6637,1467.337,-16.269,-20.101,-27.216,-6.792,34.509
12.360,96.6612,1467.618,-16.209,-36.466,-39.668,-24.402,59.150
12.380,96.6683,1467.353,-16.251,-19.033,-20.456,-26.163,38.278
12.400,96.6753,1466.623,-16.292,-17.255,-16.543,-21.131,31.905
12.420,96.6784,1465.805,-16.327,-88.585,-36.288,-14.087,96.760
12.440,96.6799,1465.034,-16.322,-70.085,1.067,18.364,72.459
12.460,96.6804,1464.385,-16.365,-56.211,-4.269,6.037,56.695
12.480,96.6809,1463.846,-16.350,-20.101,-7.649,17.358,27.638
12.500,96.6829,1463.281,-16.292,-4.447,1.957,24.402,24.881
12.520,96.6814,1462.973,-16.327,0.000,6.759,16.855,18.160
12.540,96.6905,1462.063,-16.271,-3.558,2.846,20.880,21.371
12.560,96.6885,1461.500,-16.309,-22.413,-45.182,64.400,81.799
12.580,96.6889,1461.044,-16.314,-85.917,-30.418,-5.786,91.326
12.600,96.6960,1460.172,-16.364,-23.302,-49.629,7.547,55.344
12.620,96.6875,1460.152,-16.395,-58.345,-37.711,-5.786,69.712
12.640,96.6733,1461.294,-16.493,-72.931,-19.567,-0.503,75.512
12.660,96.6672,1462.788,-16.608,-71.686,-18.678,-17.861,76.202
12.680,96.6723,1463.709,-16.701,-67.595,-26.682,-18.867,75.080
12.700,96.6794,1463.965,-16.723,-53.542,-16.899,3.773,56.272
12.720,96.6910,1463.295,-16.753,-22.769,3.558,22.641,32.306
12.740,96.7026,1461.834,-16.739,-9.961,11.384,34.464,37.638
12.760,96.7142,1459.706,-16.727,-26.149,22.947,25.156,42.932
12.780,96.7122,1458.079,-16.705,-10.139,26.504,14.591,31.909
12.800,96.6955,1458.021,-16.671,3.913,22.413,0.252,22.754
12.820,96.6940,1458.145,-16.628,12.274,17.610,-3.522,21.753
12.840,96.6970,1458.071,-16.577,18.322,15.476,6.792,24.926
12.860,96.6944,1458.250,-16.519,17.966,18.322,0.252,25.662
12.880,96.6903,1458.763,-16.393,22.591,12.985,-2.516,26.178
12.900,96.6933,1459.003,-16.256,63.682,8.183,17.358,66.510
12.920,96.6893,1459.549,-16.166,42.869,5.870,-4.780,43.533
12.940,96.6938,1459.687,-16.179,34.331,14.764,-73.959,82.865
12.960,96.6994,1459.389,-16.202,-23.836,193.535,366.778,415.392
12.980,96.6903,1459.847,-16.181,56.388,-98.368,127.039,170.279
13.000,96.6943,1459.932,-16.110,-52.831,-10.495,-39.495,66.792
13.020,96.6963,1459.856,-16.084,-34.865,13.519,35.973,51.888
13.040,96.6983,1459.640,-16.077,-12.630,3.380,36.477,38.749
13.060,96.6948,1459.730,-16.033,-20.634,3.558,-5.031,21.535
13.080,96.6988,1459.497,-16.032,-24.726,21.524,53.331,62.601
13.100,96.7059,1458.750,-16.008,-10.673,3.558,-1.509,11.351
13.120,96.7074,1458.001,-15.990,-14.408,24.014,33.206,43.439
13.140,96.7170,1456.635,-15.962,-11.740,3.913,-5.031,13.359
13.160,96.7180,1455.415,-15.932,-27.038,6.048,-9.559,29.309
13.180,96.7185,1454.372,-15.920,-50.518,5.336,31.445,59.744
13.200,96.7221,1453.252,-15.892,-30.240,-49.807,15.848,60.385
13.220,96.7231,1452.273,-15.918,-85.383,23.480,6.037,88.758
13.240,96.7241,1451.422,-15.964,17.610,-11.918,125.781,127.566
13.260,96.7231,1450.847,-16.022,-38.422,-33.442,-10.566,52.022
13.280,96.7231,1450.431,-16.096,-22.057,-1.779,11.823,25.089
13.300,96.7256,1449.955,-16.180,-18.855,3.558,87.795,89.868
13.320,96.7256,1449.630,-16.163,-33.086,-29.528,-5.283,44.660
13.340,96.7291,1449.155,-16.117,-45.893,-27.038,35.470,63.995
13.360,96.7307,1448.707,-16.051,-43.937,-36.821,-9.308,58.077
13.380,96.7337,1448.170,-15.965,-34.509,-46.249,5.786,57.994
13.400,96.7337,1447.788,-15.970,-14.586,-31.663,-11.069,36.576
13.420,96.7311,1447.733,-16.018,-32.374,-23.480,-21.634,45.470
13.440,96.7296,1447.873,-16.060,-30.951,-14.942,20.125,39.828
13.460,96.7367,1447.515,-16.151,-19.923,-9.250,68.173,71.625
13.480,96.7398,1447.032,-16.199,-53.364,43.759,102.637,123.681
13.500,96.7337,1447.155,-16.253,-38.956,-21.879,-34.967,56.736
13.520,96.7418,1446.689,-16.298,-4.625,-20.990,-23.144,31.585
13.540,96.7377,1446.656,-16.304,-19.745,-14.053,-16.352,29.235
13.560,96.7398,1446.523,-16.372,-20.634,6.404,-17.609,27.872
13.580,96.7392,1446.498,-16.420,-33.442,-30.596,-7.295,45.909
13.600,96.7418,1446.321,-16.495,16.365,-9.250,-6.289,19.822
13.620,96.7407,1446.290,-16.621,-14.942,-35.932,97.858,105.312
13.640,96.7417,1446.220,-16.670,-144.618,-38.245,107.166,184.015
13.660,96.7417,1446.195,-16.607,-22.413,-4.625,-0.252,22.887
13.680,96.7422,1446.162,-16.454,-11.562,-3.024,-15.094,19.252
13.700,96.7412,1446.236,-16.363,-12.985,-6.582,-26.163,29.940
13.720,96.7458,1445.969,-16.305,-8.894,-8.894,-34.716,36.924
13.740,96.7438,1445.916,-16.341,-11.740,-30.240,24.402,40.592
13.760,96.7463,1445.692,-16.468,28.995,-21.524,-46.539,58.905
13.780,96.7493,1445.285,-16.646,24.548,-94.989,-87.041,131.155
13.800,96.7533,1444.645,-16.800,-34.153,-8.894,-15.597,38.585
13.820,96.7548,1444.007,-16.827,-36.110,-42.869,-29.181,63.192
13.840,96.7564,1443.365,-16.864,-26.860,-21.524,-39.747,52.579
13.860,96.7534,1443.079,-16.919,-27.572,-22.235,-31.697,47.532
13.880,96.7534,1442.868,-16.936,-29.173,-21.346,-14.087,38.796
13.900,96.7518,1442.838,-16.907,-27.038,-20.990,-8.553,35.282
13.920,96.7533,1442.733,-16.907,-23.302,-19.389,-3.773,30.548
13.940,96.7604,1442.123,-16.878,-29.350,-22.947,-4.277,37.501
13.960,96.7639,1441.365,-16.855,-34.331,-22.235,-8.805,41.840
13.980,96.7598,1441.064,-16.857,-27.216,-16.899,-13.836,34.896
14.000,96.7583,1440.962,-16.817,-29.884,-21.702,-19.873,41.940
14.020,96.7634,1440.523,-16.759,-28.105,-17.077,-9.056,34.111
14.040,96.7634,1440.187,-16.691,-38.067,-12.096,-18.616,44.067
14.060,96.7690,1439.509,-16.590,-20.634,-6.048,-9.056,23.332
14.080,96.7685,1439.014,-16.464,-24.903,-8.894,-4.780,26.872
14.100,96.7649,1438.910,-16.333,-26.149,-13.697,-3.773,29.759
14.120,96.7674,1438.673,-16.229,-32.019,-19.211,-7.044,37.998
14.140,96.7690,1438.394,-16.115,-25.615,-19.567,-15.345,35.700
14.160,96.7699,1438.124,-16.116,-18.855,-19.211,-15.848,31.237
14.180,96.7765,1437.427,-16.037,-18.322,-19.389,-9.308,28.254
14.200,96.7730,1437.152,-15.932,-25.615,-16.365,-3.522,30.600
14.220,96.7730,1436.963,-15.891,-31.485,-11.207,-4.780,33.760
14.240,96.7750,1436.689,-15.821,-16.543,-16.899,24.402,33.980
14.260,96.7735,1436.620,-15.815,-19.567,-9.606,-5.534,22.489
14.280,96.7820,1435.940,-15.840,-23.125,-18.144,7.044,30.225
14.300,96.7882,1434.931,-15.809,-19.745,-17.255,18.867,32.304
14.320,96.7861,1434.279,-15.786,-25.793,-12.630,-2.264,28.808
14.340,96.7831,1434.008,-15.778,-29.173,11.740,1.006,31.462
14.360,96.7795,1434.105,-15.824,-108.864,85.383,42.263,144.664
14.380,96.7820,1434.043,-15.847,-21.879,-16.899,19.119,33.613
14.400,96.7881,1433.571,-15.893,-28.817,-14.942,-25.408,41.222
14.420,96.7887,1433.171,-15.905,-22.591,-11.918,-16.352,30.328
14.440,96.7871,1432.996,-15.903,1.423,-44.115,44.023,62.339
14.460,96.7937,1432.384,-15.862,-14.053,-30.418,49.558,59.822
14.480,96.7901,1432.183,-15.882,-15.120,2.668,15.848,22.066
14.500,96.7927,1431.862,-15.911,-46.961,34.509,23.144,62.704
14.520,96.7917,1431.708,-15.904,-32.374,-7.471,-10.063,34.716
14.540,96.7906,1431.701,-15.959,-39.668,-5.870,11.572,41.736
14.560,96.7911,1431.698,-15.908,-34.509,-19.211,6.289,39.994
14.580,96.7926,1431.617,-15.914,-48.740,-15.298,14.087,52.991
14.600,96.7977,1431.190,-15.885,-32.908,10.495,28.930,45.056
14.620,96.7987,1430.781,-15.826,-33.975,12.985,49.055,61.068
14.640,96.8002,1430.350,-15.792,-38.422,-9.606,18.867,43.869
14.660,96.8033,1429.781,-15.744,-38.956,-20.812,2.516,44.239
14.680,96.8012,1429.491,-15.748,-31.485,-14.053,-2.516,34.570
14.700,96.8062,1428.895,-15.746,-20.812,-6.937,0.252,21.939
14.720,96.8057,1428.464,-15.699,-44.470,21.346,15.094,51.586
14.740,96.8078,1427.980,-15.725,-28.283,-10.851,-2.767,30.419
14.760,96.8093,1427.498,-15.681,-49.273,11.562,13.584,52.403
14.780,96.8057,1427.405,-15.643,-47.316,-8.183,-2.767,48.098
14.800,96.8067,1427.292,-15.624,-36.821,-18.678,8.553,42.164
14.820,96.8103,1426.962,-15.671,-28.283,-28.639,14.087,42.645
14.840,96.8154,1426.333,-15.714,-28.105,-17.432,16.603,37.006
14.860,96.8169,1425.721,-15.744,-27.394,-17.788,7.295,33.467
14.880,96.8173,1425.210,-15.755,-35.221,-27.394,8.553,45.432
14.900,96.8183,1424.743,-15.709,-40.735,-30.418,13.081,52.495
14.920,96.8214,1424.164,-15.669,-42.692,-22.413,14.339,50.304
14.940,96.8244,1423.483,-15.633,-41.980,-15.298,10.314,45.856
14.960,96.8234,1423.037,-15.621,-47.494,-14.408,1.761,49.663
14.980,96.8234,1422.715,-15.646,-43.759,-16.009,-3.019,46.693
15.000,96.8300,1421.990,-15.601,-38.600,-18.678,-2.264,42.941
15.020,96.8264,1421.702,-15.575,-25.081,-11.562,-4.780,28.029
15.040,96.8259,1421.552,-15.531,-20.456,-6.937,-8.050,23.052
15.060,96.8223,1421.757,-15.530,-23.125,-6.759,-10.817,26.409
15.080,96.8254,1421.746,-15.537,-27.038,-7.115,-10.566,29.888
15.100,96.8234,1421.938,-15.518,-30.062,-7.293,-10.063,32.529
15.120,96.8219,1422.261,-15.450,-28.995,-10.851,-13.333,33.707
15.140,96.8214,1422.611,-15.398,-128.075,30.951,-78.739,153.496
15.160,96.8279,1422.429,-15.319,-13.519,28.817,-22.138,38.772
15.180,96.8193,1422.960,-15.314,-5.514,11.207,-15.848,20.178
15.200,96.8178,1423.545,-15.367,-3.913,3.913,-12.327,13.512
15.220,96.8239,1423.583,-15.358,-5.159,4.091,-8.050,10.400
15.240,96.8213,1423.815,-15.309,5.870,37.889,9.308,39.454
15.260,96.8300,1423.346,-15.250,-2.312,-144.618,-294.328,327.946
15.280,96.8370,1422.399,-15.198,16.543,12.630,11.572,23.814
15.300,96.8324,1421.947,-15.208,0.000,15.298,11.823,19.334
15.320,96.8330,1421.531,-15.277,-6.048,0.356,8.302,10.277
15.340,96.8370,1420.877,-15.348,0.178,-180.194,279.486,332.539
15.360,96.8421,1419.943,-15.363,-3.380,1.601,8.553,9.335
15.380,96.8400,1419.328,-15.325,-37.355,-25.259,-23.144,50.686
15.400,96.8420,1418.681,-15.340,-27.750,-19.923,-4.277,34.427
15.420,96.8400,1418.323,-15.344,-25.615,-8.894,12.830,29.997
15.440,96.8430,1417.820,-15.347,3.736,-8.360,38.992,40.053
15.460,96.8420,1417.514,-15.353,-9.606,-12.096,13.836,20.737
15.480,96.8445,1417.101,-15.374,-17.255,-22.235,14.087,31.473
15.500,96.8445,1416.793,-15.394,-20.634,-12.096,11.572,26.571
15.520,96.8486,1416.266,-15.396,-33.620,-10.495,4.025,35.449
15.540,96.8501,1415.745,-15.434,-34.509,-9.961,0.503,35.922
15.560,96.8435,1415.860,-15.402,-37.177,-10.495,4.025,38.839
15.580,96.8506,1415.461,-15.356,-36.288,-16.009,6.541,40.198
15.600,96.8490,1415.287,-15.290,-28.283,-15.831,6.792,33.117
15.620,96.8450,1415.497,-15.287,-24.192,-16.365,7.798,30.230
15.640,96.8511,1415.247,-15.287,-22.769,-16.365,6.541,28.793
15.660,96.8506,1415.118,-15.309,-28.283,-21.879,6.037,36.264
15.680,96.8592,1414.381,-15.348,-31.663,-15.298,5.283,35.559
15.700,96.8602,1413.711,-15.401,-25.437,-5.514,4.528,26.419
15.720,96.8581,1413.343,-15.423,65.816,-78.268,77.984,128.605
15.740,96.8647,1412.568,-15.410,-5.159,-5.870,10.063,12.741
15.760,96.8607,1412.265,-15.413,-2.668,-61.013,136.598,149.629
15.780,96.8612,1412.019,-15.458,-12.452,-17.432,39.244,44.710
15.800,96.8627,1411.740,-15.404,-10.851,-15.120,29.181,34.611
15.820,96.8688,1411.084,-15.337,-5.336,-24.192,23.898,34.422
15.840,96.8693,1410.533,-15.262,19.211,-41.980,61.633,77.006
15.860,96.8682,1410.192,-15.233,-27.038,-16.721,2.264,31.871
15.880,96.8713,1409.720,-15.214,-24.903,-17.077,12.578,32.711
15.900,96.8667,1409.727,-15.203,-52.831,-19.033,24.150,61.128
15.920,96.8712,1409.430,-15.197,-28.817,-6.759,20.628,36.078
15.940,96.8728,1409.109,-15.226,-19.567,-12.807,1.509,23.435
15.960,96.8707,1409.042,-15.280,-31.307,-8.894,13.333,35.171
15.980,96.8737,1408.796,-15.321,-41.446,-14.053,-12.327,45.467
16.000,96.8717,1408.785,-15.341,-16.365,-20.990,37.986,46.382
16.020,96.8778,1408.348,-15.392,-34.509,-9.250,16.603,39.397
16.040,96.8727,1408.404,-15.435,2.668,20.456,37.986,43.226
16.060,96.8803,1407.908,-15.507,-12.807,-20.990,-5.786,25.260
16.080,96.8778,1407.713,-15.506,-18.500,-19.923,-4.780,27.604
16.100,96.8773,1407.619,-15.551,-49.985,-37.177,-2.767,62.356
16.120,96.8773,1407.574,-15.544,-24.014,12.630,14.087,30.572
16.140,96.8788,1407.450,-15.481,-30.240,-24.903,-5.786,39.599
16.160,96.8762,1407.570,-15.425,-16.365,-12.807,34.464,40.244
16.180,96.8864,1406.919,-15.456,-16.009,-37.711,62.639,74.847
16.200,96.8889,1406.195,-15.371,-32.374,-36.288,-12.830,50.294
16.220,96.8874,1405.726,-15.291,11.562,-0.534,29.684,31.861
16.240,96.8848,1405.554,-15.258,-49.985,6.582,1.006,50.426
16.260,96.8838,1405.520,-15.189,-22.591,5.514,13.333,26.805
16.280,96.8884,1405.171,-15.197,-57.100,-15.831,-14.087,60.906
16.300,96.8894,1404.828,-15.245,-71.508,-1.423,-9.559,72.159
16.320,96.8924,1404.334,-15.216,-17.077,-11.740,11.823,23.859
16.340,96.8969,1403.597,-15.168,1.779,-23.480,20.880,31.471
16.360,96.8954,1403.122,-15.202,-59.412,-3.558,7.798,60.028
16.380,96.8949,1402.803,-15.261,-37.177,-11.562,24.150,45.815
16.400,96.9010,1402.102,-15.334,-35.043,-25.081,-3.270,43.218
16.420,96.8959,1401.942,-15.384,-19.567,-19.211,9.308,28.958
16.440,96.8974,1401.734,-15.401,10.851,-8.360,7.547,15.639
16.460,96.9015,1401.287,-15.426,-9.961,-37.711,25.156,46.413
16.480,96.8989,1401.150,-15.443,-20.278,-23.480,13.081,33.670
16.500,96.9045,1400.645,-15.483,-70.975,-12.985,-2.767,72.206
16.520,96.9020,1400.455,-15.497,-61.369,-56.744,-23.395,86.795
16.540,96.9096,1399.751,-15.533,-13.875,-11.740,13.584,22.691
16.560,96.9044,1399.591,-15.589,-3.558,3.202,16.100,16.796
16.580,96.9045,1399.497,-15.587,22.769,-19.923,38.237,48.759
16.600,96.9029,1399.582,-15.608,-32.197,-40.023,18.867,54.722
16.620,96.9075,1399.346,-15.626,-22.235,-1.957,43.017,48.464
16.640,96.9090,1399.062,-15.582,-22.947,19.389,8.050,31.101
16.660,96.9125,1398.589,-15.574,-62.436,13.341,1.761,63.870
16.680,96.9136,1398.142,-15.613,-20.634,12.096,-11.069,26.355
16.700,96.9196,1397.336,-15.691,49.273,-28.995,42.011,70.947
16.720,96.9130,1397.198,-15.755,31.307,-10.317,57.356,66.154
16.740,96.9115,1397.241,-15.808,-18.144,11.740,-24.653,32.784
16.760,96.9135,1397.161,-15.938,-25.615,-0.356,7.295,26.636
16.780,96.9191,1396.703,-15.961,34.865,-1.779,74.463,82.240
16.800,96.9130,1396.817,-16.002,-5.336,-12.807,-15.848,21.064
16.820,96.9125,1396.991,-16.049,0.889,-9.783,-11.320,14.989
16.840,96.9099,1397.366,-16.140,-9.783,-17.966,-17.861,27.157
16.860,96.9125,1397.513,-16.221,-19.923,-28.105,-18.364,39.039
16.880,96.9140,1397.538,-16.270,-30.062,-20.101,-3.270,36.311
16.900,96.9165,1397.384,-16.347,-4.981,-25.971,13.081,29.503
16.920,96.9180,1397.150,-16.363,-29.350,-9.783,-4.780,31.305
16.940,96.9211,1396.724,-16.414,-54.610,-11.918,-20.628,59.580
16.960,96.9231,1396.225,-16.480,-43.225,-17.610,-7.547,47.281
16.980,96.9246,1395.701,-16.513,-34.509,-28.105,1.006,44.517
17.000,96.9241,1395.312,-16.557,-24.726,-31.841,-2.013,40.364
17.020,96.9231,1395.081,-16.593,-19.211,-23.480,0.252,30.339
17.040,96.9276,1394.558,-16.664,-33.975,-24.370,-11.823,43.451
17.060,96.9337,1393.674,-16.666,-116.690,-9.250,-57.105,130.243
17.080,96.9306,1393.186,-16.699,-15.654,6.759,0.000,17.051
17.100,96.9352,1392.459,-16.739,-52.831,9.428,12.830,55.178
17.120,96.9332,1392.033,-16.721,-38.956,-15.476,26.414,49.546
17.140,96.9301,1391.948,-16.718,-39.668,-40.023,5.283,56.598
17.160,96.9336,1391.650,-16.687,-17.432,-20.990,1.509,27.327
17.180,96.9397,1390.974,-16.632,-14.942,-6.048,4.025,16.615
17.200,96.9367,1390.677,-16.639,-15.831,-3.024,-7.295,17.692
17.220,96.9412,1390.123,-16.660,-24.903,2.135,-3.019,25.176
17.240,96.9432,1389.544,-16.718,-9.072,-1.957,-4.780,10.439
17.260,96.9437,1389.063,-16.751,-50.874,-1.423,-0.252,50.895
17.280,96.9468,1388.474,-16.693,-20.990,4.981,8.050,23.026
17.300,96.9468,1388.027,-16.713,13.341,11.207,57.356,59.944
17.320,96.9442,1387.902,-16.755,-83.426,-10.139,-17.106,85.764
17.340,96.9437,1387.892,-16.795,78.802,-136.079,65.658,170.406
17.360,96.9518,1387.315,-16.928,-9.428,-2.668,-9.056,13.342
17.380,96.9518,1386.870,-16.990,-6.937,1.601,-14.339,16.009
17.400,96.9578,1386.081,-17.112,-49.451,2.490,-30.439,58.122
17.420,96.9553,1385.658,-17.251,-27.927,-0.534,-2.516,28.046
17.440,96.9558,1385.316,-17.310,-24.014,-2.668,11.320,26.682
17.460,96.9558,1385.083,-17.366,-12.274,-3.024,14.339,19.115
17.480,96.9583,1384.745,-17.460,30.418,137.502,386.148,411.026
17.500,96.9608,1384.326,-17.479,-72.931,34.865,36.728,88.789
17.520,96.9599,1384.091,-17.559,-15.298,-10.317,-2.013,18.561
17.540,96.9608,1383.867,-17.560,-20.101,-7.649,-2.264,21.626
17.560,96.9639,1383.494,-17.618,-106.195,206.520,10.314,232.453
17.580,96.9659,1383.069,-17.643,-3.024,-0.534,13.836,14.173
17.600,96.9639,1382.911,-17.658,-102.460,146.930,35.219,182.556
17.620,96.9674,1382.555,-17.648,-24.726,25.437,17.358,39.493
17.640,96.9664,1382.374,-17.684,-30.418,3.024,9.559,32.028
17.660,96.9668,1382.231,-17.718,-26.860,-3.380,9.056,28.547
17.680,96.9755,1381.481,-17.710,-27.216,-9.428,3.270,28.988
17.700,96.9740,1381.003,-17.735,-25.437,-18.678,7.295,32.390
17.720,96.9734,1380.680,-17.779,-27.572,-18.678,10.817,35.015
17.740,96.9765,1380.217,-17.824,-31.841,-17.610,12.578,38.499
17.760,96.9816,1379.479,-17.832,-32.730,-8.538,-5.283,34.236
17.780,96.9749,1379.405,-17.841,-32.730,-8.894,-10.063,35.378
17.800,96.9789,1379.083,-17.900,25.793,-97.657,11.069,101.610
17.820,96.9805,1378.733,-17.860,-9.428,-19.745,-27.169,34.884
17.840,96.9820,1378.368,-17.732,-33.797,-1.423,-15.848,37.356
17.860,96.9825,1378.064,-17.639,-26.149,-19.745,-9.811,34.203
17.880,96.9820,1377.891,-17.574,-11.207,-20.812,7.295,24.738
17.900,96.9845,1377.589,-17.547,5.692,-45.538,-12.578,47.585
17.920,96.9840,1377.414,-17.503,-22.413,-24.903,-11.320,35.365
17.940,96.9860,1377.151,-17.483,-21.168,1.601,3.270,21.479
17.960,96.9886,1376.771,-17.479,-28.283,-25.437,-6.541,38.597
17.980,96.9890,1376.453,-17.467,-0.712,-82.181,-45.281,93.833
18.000,96.9896,1376.179,-17.462,-30.774,-15.831,-21.131,40.548
18.020,96.9930,1375.720,-17.453,-27.394,-20.634,10.314,35.813
18.040,96.9935,1375.328,-17.402,-29.706,-25.081,7.295,39.557
18.060,96.9925,1375.110,-17.413,-41.624,-22.769,-8.553,48.210
18.080,96.9910,1375.079,-17.469,-25.437,-10.495,-4.780,27.929
18.100,96.9966,1374.661,-17.480,-33.442,-9.606,14.087,37.538
18.120,96.9925,1374.658,-17.498,-18.144,-7.471,9.308,21.718
18.140,96.9966,1374.375,-17.508,-18.144,-6.048,10.314,21.729
18.160,96.9941,1374.362,-17.476,-25.437,-6.582,3.773,26.544
18.180,96.9961,1374.228,-17.463,-35.932,-7.471,4.277,36.949
18.200,96.9956,1374.184,-17.497,-38.067,-12.452,1.509,40.080
18.220,96.9970,1374.063,-17.508,-29.173,-19.923,-1.006,35.341
18.240,97.0052,1373.358,-17.528,-20.101,-22.591,0.755,30.248
18.260,97.0072,1372.630,-17.547,-19.745,-24.370,-1.761,31.414
18.280,96.9996,1372.626,-17.516,-32.019,-27.394,-3.773,42.307
18.300,97.0066,1372.110,-17.536,-43.225,-22.947,-4.277,49.125
18.320,97.0107,1371.391,-17.578,-40.379,-18.678,-5.786,44.864
18.340,97.0097,1370.893,-17.585,-39.134,-20.278,-5.534,44.422
18.360,97.0188,1369.807,-17.590,-28.461,-21.346,-2.767,35.684
18.380,97.0142,1369.282,-17.599,-33.442,-25.615,-4.780,42.395
18.400,97.0244,1368.103,-17.638,-37.355,-26.682,-3.019,46.005
18.420,97.0228,1367.275,-17.698,-43.759,-26.326,-2.516,51.130
18.440,97.0208,1366.785,-17.712,-43.047,-26.682,-0.755,50.652
18.460,97.0213,1366.400,-17.735,-38.067,-20.634,-1.258,43.318
18.480,97.0243,1365.905,-17.762,-32.019,-12.807,4.025,34.719
18.500,97.0202,1365.865,-17.750,-32.374,-9.606,5.786,34.261
18.520,97.0243,1365.584,-17.756,-26.682,-7.827,9.559,29.404
18.540,97.0197,1365.759,-17.712,-26.860,-9.072,10.063,30.084
18.560,97.0212,1365.851,-17.703,-26.504,-10.851,12.830,31.382
18.580,97.0248,1365.709,-17.733,-27.216,-11.918,12.830,32.363
18.600,97.0258,1365.561,-17.729,-26.326,-11.029,12.830,31.294
18.620,97.0268,1365.399,-17.679,-35.043,-8.716,13.584,38.581
18.640,97.0303,1365.032,-17.660,-34.153,-7.471,13.081,37.328
18.660,97.0308,1364.723,-17.599,-23.125,-8.538,8.553,26.092
18.680,97.0247,1364.967,-17.564,-12.274,-6.226,10.063,17.049
18.700,97.0298,1364.821,-17.573,-5.514,-3.024,3.522,7.208
18.720,97.0283,1364.843,-17.575,-4.269,1.067,6.037,7.471
18.740,97.0374,1364.191,-17.566,-18.500,3.558,10.817,21.723
18.760,97.0368,1363.708,-17.578,-54.965,1.957,7.295,55.482
18.780,97.0374,1363.285,-17.613,-42.514,1.957,7.295,43.179
18.800,97.0404,1362.723,-17.577,-43.759,-59.768,-5.534,74.281
18.820,97.0368,1362.552,-17.554,-35.754,-33.975,-44.275,66.279
18.840,97.0293,1363.022,-17.525,-38.422,-29.528,-23.395,53.810
18.860,97.0384,1362.756,-17.506,-54.965,-28.995,-23.647,66.491
18.880,97.0419,1362.287,-17.497,-51.941,-21.702,-42.263,70.392
18.900,97.0475,1361.483,-17.471,-59.235,-16.543,-30.942,68.846
18.920,97.0454,1360.986,-17.476,-50.340,-7.293,-4.780,51.090
18.940,97.0495,1360.287,-17.452,-28.639,-5.870,3.522,29.446
18.960,97.0510,1359.617,-17.412,-19.033,-11.562,3.270,22.509
18.980,97.0505,1359.126,-17.420,-17.432,-17.077,0.252,24.404
19.000,97.0524,1358.606,-17.427,-13.163,-29.528,-7.295,33.142
19.020,97.0550,1358.010,-17.386,-7.827,-30.240,8.805,32.454
19.040,97.0535,1357.671,-17.365,-27.394,-29.884,24.150,47.188
19.060,97.0590,1357.011,-17.367,-0.356,-30.951,3.773,31.183
19.080,97.0610,1356.346,-17.345,-122.383,110.287,49.809,172.109
19.100,97.0611,1355.832,-17.282,-6.582,2.312,2.516,7.416
19.120,97.0599,1355.542,-17.282,-23.125,34.509,54.841,68.798
19.140,97.0636,1355.073,-17.249,-8.716,3.380,7.547,12.015
19.160,97.0641,1354.696,-17.233,-23.125,-3.913,12.578,26.613
19.180,97.0655,1354.320,-17.192,-38.245,-39.312,10.817,55.902
19.200,97.0676,1353.902,-17.191,-7.649,10.851,194.206,194.659
19.220,97.0706,1353.371,-17.152,-91.075,-65.816,-75.217,135.219
19.240,97.0696,1353.053,-17.111,-10.317,0.356,9.308,13.900
19.260,97.0700,1352.808,-17.117,-4.803,-1.245,35.722,36.065
19.280,97.0660,1352.969,-17.136,-11.562,-7.649,25.156,28.723
19.300,97.0715,1352.731,-17.074,-25.971,1.067,32.955,41.972
19.320,97.0766,1352.186,-17.055,-37.889,-21.168,28.930,52.159
19.340,97.0777,1351.691,-17.048,-33.442,-31.307,21.634,50.661
19.360,97.0807,1351.082,-17.042,-27.038,-33.086,-5.283,43.054
19.380,97.0756,1351.006,-17.109,-13.163,-19.211,23.395,33.010
19.400,97.0817,1350.525,-17.067,-0.712,-9.250,27.923,29.424
19.420,97.0806,1350.244,-17.154,0.889,-14.408,23.647,27.705
19.440,97.0801,1350.089,-17.208,-6.048,-20.634,23.647,31.961
19.460,97.0832,1349.770,-17.235,-17.610,-14.053,22.138,31.586
19.480,97.0862,1349.311,-17.271,-24.370,-18.678,19.873,36.574
19.500,97.0816,1349.314,-17.353,-26.149,-22.235,18.867,39.168
19.520,97.0837,1349.202,-17.352,-25.437,-16.187,23.144,38.009
19.540,97.0811,1349.344,-17.294,-16.009,-8.894,26.414,32.142
19.560,97.0867,1349.068,-17.184,-3.558,3.913,31.445,31.887
19.580,97.0908,1348.551,-17.082,-8.894,2.490,28.678,30.129
19.600,97.0872,1348.419,-17.037,-19.923,-2.846,27.672,34.216
19.620,97.0862,1348.416,-17.006,-25.793,-10.139,23.898,36.595
19.640,97.0886,1348.255,-16.993,-20.101,-13.341,24.150,34.136
19.660,97.0871,1348.259,-16.971,-26.504,-20.101,20.628,39.141
19.680,97.0922,1347.898,-16.981,-12.630,-39.312,23.898,47.708
19.700,97.0912,1347.694,-16.918,-29.528,-16.721,12.830,36.278
19.720,97.0942,1347.312,-16.898,-22.413,-14.586,22.389,34.877
19.740,97.0957,1346.895,-16.898,-16.187,-10.139,23.395,30.202
19.760,97.0977,1346.410,-16.927,-13.341,-6.937,24.905,29.092
19.780,97.0977,1346.026,-16.885,-12.985,-4.803,24.150,27.837
19.800,97.0982,1345.690,-16.886,-16.009,-8.894,21.131,27.963
19.820,97.0982,1345.436,-16.939,-25.437,-18.678,16.855,35.777
19.840,97.0983,1345.250,-16.944,-39.845,-30.596,6.037,50.598
19.860,97.1003,1344.968,-16.810,-47.494,-32.908,11.069,58.832
19.880,97.1033,1344.528,-16.785,-41.624,-23.125,10.817,48.830
19.900,97.1043,1344.111,-16.730,-28.461,-14.942,16.100,35.951
19.920,97.1078,1343.517,-16.776,-15.654,-9.250,19.370,26.567
19.940,97.1073,1343.088,-16.736,-9.606,-7.115,18.112,21.702
19.960,97.1058,1342.878,-16.742,-16.721,-17.432,19.873,31.280
19.980,97.1113,1342.313,-16.762,-17.077,-19.923,17.106,31.323
20.000,97.1133,1341.720,-16.791,-21.879,-15.476,22.641,35.083
20.020,97.1093,1341.570,-16.778,-25.615,-9.961,26.414,38.119
20.040,97.1108,1341.375,-16.812,-27.927,-5.870,27.672,39.751
20.060,97.1153,1340.902,-16.763,-26.326,-6.048,24.905,36.741
20.080,97.1158,1340.508,-16.758,-9.072,-0.178,23.144,24.859
20.100,97.1148,1340.292,-16.808,5.159,11.562,25.911,28.839
20.120,97.1194,1339.803,-16.864,-1.423,14.231,21.886,26.144
20.140,97.1219,1339.235,-16.903,-20.990,6.404,21.383,30.640
20.160,97.1224,1338.761,-16.902,-34.331,-8.005,21.383,41.230
20.180,97.1244,1338.250,-16.894,-28.995,-16.187,21.886,39.771
20.200,97.1300,1337.441,-16.917,-19.567,-23.480,22.641,38.037
20.220,97.1284,1336.922,-16.908,4.803,11.207,126.284,126.872
20.240,97.1295,1336.457,-16.955,-6.048,-7.827,14.087,17.213
20.260,97.1294,1336.121,-16.995,-8.360,0.534,23.144,24.613
20.280,97.1315,1335.737,-16.986,-6.048,-13.519,10.817,18.340
20.300,97.1320,1335.430,-16.952,-9.428,-10.139,11.823,18.207
20.320,97.1325,1335.187,-16.974,-17.077,-11.384,-7.547,21.867
20.340,97.1324,1335.037,-17.040,-34.153,-29.528,-15.094,47.605
20.360,97.1360,1334.687,-17.090,-30.062,-17.255,-1.761,34.707
20.380,97.1380,1334.286,-17.176,-8.005,1.245,-5.786,9.955
20.400,97.1320,1334.459,-17.208,-266.644,105.128,-155.214,325.949
20.420,97.1395,1334.072,-17.261,-89.830,-89.830,-42.263,133.884
20.440,97.1395,1333.789,-17.307,69.907,-64.927,41.256,103.945
20.460,97.1405,1333.512,-17.359,-23.658,-29.706,-31.948,49.627
20.480,97.1436,1333.086,-17.415,-87.696,-7.649,19.622,90.189
20.500,97.1486,1332.379,-17.497,-27.394,4.625,31.445,41.960
20.520,97.1450,1332.091,-17.542,-40.201,-15.654,16.603,46.226
20.540,97.1365,1332.549,-17.558,-19.389,-1.601,-38.237,42.902
20.560,97.1370,1332.939,-17.553,-7.293,9.072,-31.194,33.295
20.580,97.1389,1333.154,-17.523,-10.139,9.428,-29.433,32.527
20.600,97.1445,1332.935,-17.567,-41.091,-6.582,-41.005,58.422
20.620,97.1475,1332.537,-17.516,-43.759,-41.980,-4.528,60.808
20.640,97.1511,1331.948,-17.462,-9.606,-18.500,4.277,21.279
20.660,97.1491,1331.623,-17.420,-9.072,-2.312,-0.252,9.365
20.680,97.1546,1330.948,-17.388,-10.851,4.091,2.767,11.922
20.700,97.1546,1330.401,-17.381,-17.077,7.827,14.842,23.941
20.720,97.1571,1329.770,-17.358,-24.548,11.029,32.452,42.158
20.740,97.1637,1328.764,-17.311,-43.581,8.716,9.308,45.408
20.760,97.1606,1328.186,-17.240,-37.177,0.534,-11.572,38.940
20.780,97.1551,1328.167,-17.213,273.582,-277.139,31.194,390.674
20.800,97.1621,1327.656,-17.166,-0.889,-2.312,41.759,41.833
20.820,97.1677,1326.838,-17.120,-15.476,3.380,24.653,29.304
20.840,97.1682,1326.154,-17.101,-29.706,-4.447,35.722,46.672
20.860,97.1616,1326.129,-17.073,-39.134,-27.394,55.847,73.490
20.880,97.1682,1325.659,-17.049,-36.288,1.067,13.081,38.588
20.900,97.1636,1325.666,-17.051,-20.634,-11.029,18.867,30.056
20.920,97.1727,1325.026,-17.032,-21.168,-15.476,20.880,33.519
20.940,97.1667,1324.992,-16.989,-28.639,-16.899,10.566,34.891
20.960,97.1707,1324.706,-16.994,-32.019,-8.894,8.050,34.192
20.980,97.1732,1324.317,-16.935,-40.379,-5.870,16.603,44.052
21.000,97.1772,1323.725,-16.933,-40.735,-11.207,13.836,44.456
21.020,97.1727,1323.616,-16.927,-34.509,-20.278,1.761,40.065
21.040,97.1783,1323.146,-16.892,-19.923,-13.875,-13.584,27.820
21.060,97.1722,1323.261,-16.841,-46.605,-20.990,-20.125,54.933
21.080,97.1741,1323.255,-16.832,-28.283,-57.100,90.814,110.939
21.100,97.1813,1322.744,-16.799,-17.788,-1.779,-6.541,19.036
21.120,97.1842,1322.119,-16.788,-23.125,-7.827,0.755,24.425
21.140,97.1858,1321.507,-16.777,-31.663,-19.923,10.314,38.805
21.160,97.1797,1321.497,-16.788,-29.350,-19.033,11.320,36.768
21.180,97.1807,1321.455,-16.784,-26.504,-12.274,16.603,33.597
21.200,97.1853,1321.114,-16.813,2.668,-19.745,98.613,100.605
21.220,97.1817,1321.132,-16.898,7.115,-32.374,52.828,62.366
21.240,97.1878,1320.721,-16.929,-32.908,-20.812,-0.755,38.944
21.260,97.1902,1320.216,-16.978,-37.177,-11.918,10.817,40.512
21.280,97.1862,1320.127,-16.970,-13.341,-30.418,44.527,55.550
21.300,97.1898,1319.819,-16.967,-29.173,-23.125,-14.842,40.076
21.320,97.1933,1319.320,-16.987,-35.576,-8.538,7.044,37.258
21.340,97.1959,1318.732,-16.974,-30.418,-11.918,17.609,37.113
21.360,97.1953,1318.315,-16.957,-82.715,-79.869,1.258,114.989
21.380,97.1989,1317.723,-17.005,-4.269,-39.845,31.948,51.250
21.400,97.1999,1317.184,-16.983,-69.018,-36.644,-0.503,78.144
21.420,97.1988,1316.851,-16.904,-100.325,77.201,1.006,126.594
21.440,97.2013,1316.421,-16.893,-1.423,1.067,23.395,23.463
21.460,97.2049,1315.830,-16.875,10.673,-42.336,66.412,79.479
21.480,97.2049,1315.375,-16.918,-8.538,-18.500,0.755,20.389
21.500,97.2074,1314.841,-16.973,-20.990,-30.951,-15.345,40.423
21.520,97.2099,1314.245,-17.029,4.447,-45.004,-36.225,57.943
21.540,97.2069,1314.024,-17.036,-31.307,1.779,-62.891,70.275
21.560,97.2094,1313.697,-16.989,-64.215,-6.226,-10.817,65.417
21.580,97.2033,1313.935,-16.904,-56.033,-37.889,-84.525,108.258
21.600,97.2104,1313.647,-16.843,-46.249,-15.298,-222.633,227.900
21.620,97.2048,1313.875,-16.823,-6.048,-17.432,16.855,24.991
21.640,97.2079,1313.876,-16.816,-49.629,8.716,-43.269,66.417
21.660,97.2093,1313.803,-16.797,-42.158,3.024,15.848,45.140
21.680,97.2144,1313.381,-16.749,-47.850,-12.630,-0.252,49.489
21.700,97.2150,1313.015,-16.766,-25.259,-20.278,7.547,33.260
21.720,97.2165,1312.620,-16.734,-12.985,-13.697,17.106,25.472
21.740,97.2129,1312.590,-16.694,-10.317,-9.250,18.616,23.207
21.760,97.2108,1312.754,-16.800,-18.500,-11.740,12.075,25.018
21.780,97.2164,1312.494,-16.908,-43.225,-15.120,9.308,46.730
21.800,97.2164,1312.298,-16.857,-36.288,-7.471,8.553,38.023
21.820,97.2184,1312.003,-16.816,-38.600,-13.341,5.786,41.249
21.840,97.2240,1311.345,-16.824,-29.350,-17.610,6.541,34.848
21.860,97.2255,1310.700,-16.843,-4.625,-35.932,-1.761,36.271
21.880,97.2265,1310.104,-16.800,-25.971,-10.673,-3.522,28.298
21.900,97.2291,1309.432,-16.796,-30.062,-11.918,17.861,36.943
21.920,97.2280,1308.979,-16.776,-35.754,-19.745,1.258,40.863
21.940,97.2240,1308.947,-16.820,-25.259,-16.721,-1.258,30.318
21.960,97.2326,1308.303,-16.781,-21.168,-11.207,6.541,24.828
21.980,97.2290,1308.071,-16.744,-18.678,-8.360,25.156,32.428
22.000,97.2326,1307.643,-16.697,-27.216,-21.168,11.320,36.290
22.020,97.2325,1307.323,-16.685,-20.812,-7.293,-31.445,38.408
22.040,97.2356,1306.861,-16.617,-29.706,-1.245,54.589,62.161
22.060,97.2345,1306.596,-16.590,-23.480,-4.269,67.167,71.281
22.080,97.2376,1306.180,-16.472,-40.735,-15.831,9.811,44.791
22.100,97.2365,1305.952,-16.389,-36.288,-11.029,3.522,38.090
22.120,97.2426,1305.337,-16.326,-42.158,-16.543,4.277,45.489
22.140,97.2406,1305.014,-16.328,-49.095,-16.721,-2.767,51.938
22.160,97.2431,1304.592,-16.326,-43.759,-18.855,-2.767,47.729
22.180,97.2430,1304.286,-16.291,-33.264,-18.678,-0.252,38.150
22.200,97.2476,1303.726,-16.228,-31.129,-25.437,1.761,40.239
22.220,97.2512,1303.021,-16.188,-31.663,-23.480,-0.252,39.420
22.240,97.2486,1302.670,-16.091,-31.841,-16.543,3.019,36.009
22.260,97.2521,1302.153,-16.039,-16.009,-10.317,10.063,21.541
22.280,97.2476,1302.114,-16.013,-1.779,-15.654,17.861,23.816
22.300,97.2486,1302.057,-15.977,-28.639,-15.120,-2.767,32.503
22.320,97.2532,1301.701,-15.947,-15.120,-11.918,-5.534,20.032
22.340,97.2511,1301.608,-15.959,-27.216,-20.101,-5.786,34.325
22.360,97.2531,1301.418,-15.949,-24.370,-25.793,3.522,35.659
22.380,97.2597,1300.792,-15.913,-25.437,-20.101,7.798,33.345
22.400,97.2516,1300.926,-15.899,-34.509,-23.125,-6.289,42.014
22.420,97.2531,1300.964,-15.935,-48.384,-26.326,-4.780,55.289
22.440,97.2561,1300.804,-15.971,-57.812,-33.620,0.000,66.876
22.460,97.2576,1300.585,-16.029,-63.326,-40.201,0.252,75.009
22.480,97.2663,1299.769,-16.101,-43.403,-20.990,3.019,48.307
22.500,97.2673,1299.030,-16.112,-34.331,-8.716,13.584,37.936
22.520,97.2648,1298.630,-16.151,-26.149,-6.226,11.823,29.365
22.540,97.2647,1298.337,-16.205,-21.879,-4.091,9.811,24.325
22.560,97.2693,1297.778,-16.244,-25.615,-3.558,9.559,27.571
22.580,97.2667,1297.539,-16.292,-30.951,-3.913,7.547,32.098
22.600,97.2703,1297.107,-16.288,-19.389,-1.245,6.792,20.582
22.620,97.2723,1296.628,-16.314,-33.264,-0.889,7.295,34.066
22.640,97.2733,1296.189,-16.289,-40.735,1.957,13.836,43.065
22.660,97.2707,1296.062,-16.275,-16.899,-3.736,9.056,19.533
22.680,97.2717,1295.919,-16.256,-27.927,-33.264,5.534,43.784
22.700,97.2763,1295.484,-16.277,-63.148,-47.139,-1.006,78.808
22.720,97.2727,1295.434,-16.266,-52.831,-24.370,20.377,61.646
22.740,97.2717,1295.512,-16.248,3.558,-44.470,-60.878,75.475
22.760,97.2849,1294.604,-16.199,2.135,-16.721,-2.767,17.082
22.780,97.2909,1293.407,-16.125,-55.143,35.221,60.375,89.030
22.800,97.2797,1293.290,-16.107,-11.207,-20.101,-14.842,27.385
22.820,97.2762,1293.508,-16.086,-14.231,30.951,53.834,63.707
22.840,97.2788,1293.545,-16.077,-20.634,56.566,-11.069,61.221
22.860,97.2817,1293.388,-16.100,-34.687,-22.591,14.087,43.726
22.880,97.2832,1293.176,-16.073,-82.715,-48.917,6.792,96.337
22.900,97.2838,1292.988,-16.037,-34.509,-28.461,-30.691,54.248
22.920,97.2888,1292.481,-16.004,-25.793,40.735,11.320,49.525
22.940,97.2898,1292.002,-15.908,-124.695,-23.658,-56.350,138.866
22.960,97.2883,1291.749,-15.797,-30.774,-0.178,-7.547,31.686
22.980,97.2867,1291.687,-15.761,-74.177,-25.793,-28.930,83.692
23.000,97.2852,1291.788,-15.706,-52.119,19.389,-11.320,56.750
23.020,97.2878,1291.711,-15.662,-39.668,18.678,-9.811,44.929
23.040,97.2877,1291.678,-15.616,-14.586,18.855,-7.295,24.930
23.060,97.2892,1291.559,-15.540,-18.678,8.005,30.691,36.808
23.080,97.2867,1291.675,-15.475,9.072,53.187,17.861,56.834
23.100,97.2913,1291.447,-15.439,-23.658,22.235,20.628,38.466
23.120,97.2887,1291.469,-15.405,-16.187,-17.255,114.964,117.373
23.140,97.2958,1290.957,-15.457,-23.658,19.033,18.364,35.485
23.160,97.2958,1290.541,-15.431,-33.797,45.182,34.967,66.381
23.180,97.3003,1289.859,-15.417,-36.644,63.326,26.666,77.871
23.200,97.2983,1289.461,-15.425,-26.682,11.740,12.327,31.650
23.220,97.2988,1289.110,-15.461,-31.485,-2.312,5.786,32.096
23.240,97.2978,1288.919,-15.549,-28.817,-4.981,43.017,52.016
23.260,97.2993,1288.671,-15.606,-35.754,10.139,-4.780,37.470
23.280,97.3023,1288.257,-15.673,-17.966,12.985,59.872,63.844
23.300,97.3074,1287.547,-15.695,-31.663,15.298,-0.252,35.166
23.320,97.3068,1287.019,-15.689,-27.038,13.875,55.344,63.139
23.340,97.3109,1286.299,-15.708,-23.836,17.077,12.830,32.006
23.360,97.3078,1285.962,-15.719,-29.528,-6.759,-13.836,33.302
23.380,97.3074,1285.753,-15.749,-74.177,-5.514,-4.780,74.535
23.400,97.3088,1285.511,-15.814,-31.663,7.827,0.000,32.616
23.420,97.3159,1284.805,-15.801,-31.663,9.961,22.892,40.321
23.440,97.3194,1283.981,-15.789,-34.153,13.875,23.395,43.661
23.460,97.3220,1283.135,-15.753,-18.678,21.879,33.458,44.125
23.480,97.3224,1282.435,-15.724,-22.413,28.461,22.389,42.587
23.500,97.3174,1282.286,-15.731,-33.620,10.495,13.081,37.571
23.520,97.3204,1281.993,-15.722,-35.221,11.029,18.112,41.112
23.540,97.3219,1281.683,-15.700,-57.634,3.202,11.572,58.871
23.560,97.3255,1281.207,-15.718,-42.869,-1.245,6.541,43.383
23.580,97.3264,1280.786,-15.743,-36.821,3.024,10.817,38.496
23.600,97.3285,1280.329,-15.720,-26.504,17.966,33.961,46.676
23.620,97.3274,1280.081,-15.755,-26.682,23.480,26.163,44.133
23.640,97.3294,1279.773,-15.779,-31.485,12.630,17.106,37.993
23.660,97.3299,1279.526,-15.815,-34.331,3.024,9.056,35.634
23.680,97.3304,1279.335,-15.816,-17.966,3.024,4.277,18.714
23.700,97.3325,1279.065,-15.773,-17.077,9.250,10.063,21.873
23.720,97.3304,1279.049,-15.764,-54.965,38.956,-4.528,67.522
23.740,97.3304,1279.081,-15.728,-24.726,-4.091,-11.069,27.397
23.760,97.3324,1278.995,-15.765,-25.259,5.692,9.559,27.601
23.780,97.3340,1278.841,-15.816,-28.817,8.183,-6.792,30.716
23.800,97.3375,1278.476,-15.865,-9.428,-8.005,-8.302,14.895
23.820,97.3395,1278.044,-15.825,-56.211,32.019,28.427,70.660
23.840,97.3415,1277.559,-15.763,-36.821,11.562,-0.252,38.595
23.860,97.3420,1277.141,-15.733,-11.918,-5.514,59.117,60.558
23.880,97.3369,1277.211,-15.714,-7.649,-0.178,-16.100,17.825
23.900,97.3369,1277.307,-15.751,-13.341,-10.139,-7.547,18.378
23.920,97.3369,1277.417,-15.741,-48.740,-21.346,32.955,62.588
23.940,97.3324,1277.886,-15.783,-43.937,-22.947,16.100,52.117
23.960,97.3369,1277.959,-15.792,-63.326,-38.422,-23.395,77.677
23.980,97.3394,1277.844,-15.782,-35.043,-10.851,11.069,38.318
24.000,97.3430,1277.486,-15.736,-54.788,-15.298,12.830,58.312
24.020,97.3430,1277.194,-15.702,-40.557,-15.654,-1.258,43.491
24.040,97.3449,1276.811,-15.690,-32.552,-26.149,3.773,41.924
24.060,97.3404,1276.846,-15.668,-35.932,-25.615,18.616,47.893
24.080,97.3450,1276.539,-15.584,-50.518,-24.903,11.320,57.449
24.100,97.3475,1276.097,-15.494,-48.917,-30.418,11.823,58.804
24.120,97.3510,1275.470,-15.445,-44.648,-23.658,16.603,53.187
24.140,97.3576,1274.452,-15.372,-36.999,-6.404,2.516,37.634
24.160,97.3526,1273.995,-15.351,-40.557,-6.759,4.780,41.393
24.180,97.3536,1273.562,-15.325,-27.038,3.913,20.125,33.932
24.200,97.3586,1272.844,-15.317,-17.610,-19.033,96.097,99.534
24.220,97.3596,1272.198,-15.253,-39.312,-12.274,9.308,42.222
24.240,97.3647,1271.300,-15.229,-46.783,-25.081,1.509,53.104
24.260,97.3656,1270.515,-15.194,-37.889,-23.302,-1.761,44.516
24.280,97.3656,1269.899,-15.169,-30.596,-19.923,2.264,36.581
24.300,97.3671,1269.322,-15.134,-24.370,-14.053,5.031,28.578
24.320,97.3651,1269.047,-15.151,-39.845,-16.365,14.087,45.320
24.340,97.3656,1268.838,-15.132,-39.668,-16.187,9.056,43.790
24.360,97.3691,1268.453,-15.129,-34.687,-18.678,0.252,39.397
24.380,97.3717,1267.989,-15.091,-15.831,-12.630,44.527,48.916
24.400,97.3716,1267.660,-15.068,-17.255,-10.139,2.264,20.141
24.420,97.3726,1267.366,-15.013,-11.918,-3.736,2.264,12.693
24.440,97.3736,1267.101,-14.929,-11.562,-1.957,2.013,11.898
24.460,97.3701,1267.204,-14.796,-31.841,-0.178,2.264,31.922
24.480,97.3716,1267.229,-14.721,-30.240,2.135,3.773,30.549
24.500,97.3696,1267.455,-14.667,-32.552,-0.534,10.566,34.228
24.520,97.3686,1267.769,-14.622,-38.067,-11.384,17.861,43.562
24.540,97.3716,1267.843,-14.590,-31.485,-28.283,13.333,44.374
24.560,97.3787,1267.388,-14.578,-22.057,-32.374,3.773,39.356
24.580,97.3772,1267.146,-14.596,-31.485,-33.620,-4.780,46.308
24.600,97.3761,1267.050,-14.616,-46.605,-25.259,-9.056,53.778
24.620,97.3817,1266.568,-14.670,-60.835,18.855,26.414,68.951
24.640,97.3806,1266.263,-14.723,-21.702,8.183,23.395,32.943
24.660,97.3832,1265.836,-14.762,-9.072,1.245,10.314,13.792
24.680,97.3837,1265.460,-14.796,-16.009,3.558,3.773,16.828
24.700,97.3796,1265.479,-14.846,-18.678,-1.245,0.503,18.726
24.720,97.3812,1265.404,-14.907,-21.346,-14.586,7.044,26.796
24.740,97.3837,1265.174,-14.908,-6.048,-44.826,-3.270,45.350
24.760,97.3958,1264.072,-14.907,-3.024,-54.965,-14.339,56.885
24.780,97.3867,1263.864,-14.906,-36.466,-45.360,-22.892,62.540
24.800,97.3821,1264.066,-14.875,-75.066,3.558,19.873,77.734
24.820,97.3846,1264.078,-14.923,-226.087,115.445,-85.028,267.718
24.840,97.3876,1263.885,-14.912,47.316,-119.536,53.834,139.377
24.860,97.3911,1263.477,-14.943,-37.355,-2.490,-26.414,45.818
24.880,97.3916,1263.117,-15.010,-18.855,-1.067,-6.289,19.905
24.900,97.3992,1262.256,-15.039,-36.999,-12.096,18.867,43.258
24.920,97.3952,1261.864,-15.077,-14.586,-23.836,7.547,28.946
24.940,97.3987,1261.292,-15.130,-25.437,-33.620,-5.534,42.520
24.960,97.3957,1261.077,-15.124,-39.668,-22.591,-11.069,46.972
24.980,97.3972,1260.817,-15.139,-43.937,-10.851,-16.603,48.206
25.000,97.3966,1260.678,-15.176,-43.581,-11.207,-14.339,47.228
25.020,97.4017,1260.209,-15.194,-28.639,-25.081,-15.094,40.952
25.040,97.4042,1259.657,-15.246,-33.264,-12.630,-12.075,37.574
25.060,97.4052,1259.148,-15.302,-38.067,-17.077,-13.836,43.956
25.080,97.3986,1259.269,-15.350,-36.821,-11.562,-15.597,41.627
25.100,97.4027,1259.100,-15.411,-32.374,-15.298,-2.767,35.914
25.120,97.4052,1258.799,-15.443,-20.278,-7.827,-7.295,22.928
25.140,97.4072,1258.432,-15.518,-16.009,-19.567,-5.786,25.935
25.160,97.4087,1258.039,-15.590,-24.548,-13.163,-1.761,27.910
25.180,97.4102,1257.632,-15.614,-11.918,-11.918,1.761,16.946
25.200,97.4102,1257.323,-15.648,-7.293,-9.783,4.528,13.016
25.220,97.4077,1257.299,-15.759,-3.736,-35.398,56.350,66.651
25.240,97.4142,1256.816,-15.817,-55.855,2.135,-30.439,63.646
25.260,97.4162,1256.288,-15.902,-20.634,8.183,12.578,25.513
25.280,97.4183,1255.724,-15.986,-13.163,-6.759,-13.836,20.258
25.300,97.4163,1255.439,-16.048,-32.730,-12.096,-16.352,38.535
25.320,97.4198,1254.970,-16.162,-39.134,-26.682,-12.578,49.006
25.340,97.4182,1254.738,-16.242,-48.917,-30.062,-9.056,58.126
25.360,97.4182,1254.585,-16.301,-34.865,-25.615,-6.541,43.755
25.380,97.4193,1254.418,-16.358,-23.658,-10.495,-7.547,26.959
25.400,97.4238,1253.969,-16.486,-16.365,-3.558,-7.547,18.369
25.420,97.4208,1253.861,-16.590,-24.726,-11.207,-15.094,31.061
25.440,97.4121,1254.470,-16.670,-27.038,-18.144,-13.584,35.282
25.460,97.4046,1255.607,-16.766,-51.052,-32.197,-9.308,61.070
25.480,97.4106,1256.134,-16.825,-38.067,-43.047,-14.087,59.166
25.500,97.4147,1256.283,-16.872,-35.754,-30.774,-11.069,48.455
25.520,97.4227,1255.795,-16.913,-22.947,-16.543,-13.836,31.491
25.540,97.4233,1255.343,-16.875,-32.730,-13.875,-15.345,38.720
25.560,97.4262,1254.734,-16.904,-48.384,-3.558,-4.025,48.681
25.580,97.4283,1254.066,-16.978,-23.480,1.067,-10.566,25.770
25.600,97.4297,1253.400,-17.053,-21.702,-3.202,-4.780,22.451
25.620,97.4338,1252.539,-17.069,-28.283,-12.274,-10.817,32.674
25.640,97.4369,1251.600,-17.112,-22.057,-6.759,-4.780,23.560
25.660,97.4353,1250.954,-17.169,-23.836,-9.961,6.037,26.530
25.680,97.4363,1250.366,-17.240,-23.480,-9.606,13.584,28.777
25.700,97.4398,1249.638,-17.283,-14.408,-4.803,7.295,16.849
25.720,97.4413,1248.952,-17.253,-5.336,-26.326,21.886,34.649
25.740,97.4383,1248.657,-17.249,-25.793,-6.937,5.534,27.277
25.760,97.4403,1248.308,-17.233,-34.153,-11.740,-0.252,36.116
25.780,97.4403,1248.063,-17.325,-41.624,-9.606,3.522,42.863
25.800,97.4372,1248.146,-17.340,-46.071,-6.582,5.031,46.810
25.820,97.4454,1247.648,-17.338,-39.134,-8.538,7.798,40.807
25.840,97.4383,1247.817,-17.315,-30.774,-13.697,14.339,36.609
25.860,97.4433,1247.624,-17.322,-24.548,-19.211,11.069,33.078
25.880,97.4493,1247.046,-17.359,-43.403,10.673,101.380,110.795
25.900,97.4519,1246.403,-17.371,-20.812,-8.716,-6.792,23.564
25.920,97.4554,1245.631,-17.427,-27.038,-4.269,7.295,28.328
25.940,97.4594,1244.717,-17.472,-21.524,-3.024,23.144,31.750
25.960,97.4594,1243.996,-17.472,-19.211,-6.048,12.578,23.746
25.980,97.4599,1243.402,-17.474,56.033,-144.618,281.750,321.616
26.000,97.4624,1242.769,-17.490,-25.971,-5.336,-3.019,26.685
26.020,97.4589,1242.564,-17.447,-28.995,-16.899,8.553,34.633
26.040,97.4655,1241.953,-17.448,-6.759,-38.778,23.395,45.791
26.060,97.4664,1241.423,-17.447,-17.788,-27.394,36.728,49.151
26.080,97.4726,1240.569,-17.444,-16.721,-18.144,51.067,56.715
26.100,97.4720,1239.950,-17.437,-26.504,-7.649,23.647,36.334
26.120,97.4685,1239.761,-17.423,-32.197,17.610,-4.780,37.008
26.140,97.4725,1239.365,-17.402,-44.826,-7.827,-7.044,46.046
26.160,97.4680,1239.444,-17.375,-28.283,-16.187,27.672,42.752
26.180,97.4694,1239.464,-17.357,-25.971,-16.721,9.811,32.409
26.200,97.4720,1239.345,-17.320,-23.836,-19.923,5.786,31.600
26.220,97.4785,1238.792,-17.278,-30.951,-15.654,3.270,34.838
26.240,97.4734,1238.763,-17.224,-39.845,-8.183,10.817,42.091
26.260,97.4739,1238.751,-17.201,-37.355,-1.779,21.383,43.079
26.280,97.4750,1238.704,-17.163,-30.951,-7.115,6.541,32.425
26.300,97.4745,1238.746,-17.141,-36.466,0.534,25.156,44.304
26.320,97.4815,1238.279,-17.084,-27.750,-2.490,4.277,28.187
26.340,97.4816,1237.909,-17.055,-24.726,-3.736,11.572,27.554
26.360,97.4809,1237.676,-16.974,-33.797,-4.269,16.855,38.008
26.380,97.4794,1237.626,-16.899,-30.596,-2.846,14.339,33.909
26.400,97.4876,1236.990,-16.836,-27.927,-0.534,13.836,31.171
26.420,97.4871,1236.519,-16.808,-26.504,1.601,19.873,33.166
26.440,97.4855,1236.274,-16.720,-23.480,-0.356,25.156,34.414
26.460,97.4886,1235.861,-16.562,-19.389,-4.091,21.886,29.524
26.480,97.4901,1235.431,-16.316,-19.745,-3.736,17.106,26.390
26.500,97.4895,1235.141,-16.091,-22.057,-4.981,12.327,25.754
26.520,97.4931,1234.653,-15.925,-28.995,-4.091,9.811,30.882
26.540,97.4869,1234.747,-15.793,-35.932,-3.202,8.302,37.017
26.560,97.4946,1234.280,-15.644,-41.091,-0.178,19.370,45.428
26.580,97.4950,1233.880,-15.512,-35.932,-7.827,0.503,36.778
26.600,97.4991,1233.265,-15.391,-46.961,-5.692,4.025,47.475
26.620,97.4955,1233.054,-15.314,-36.288,-4.269,4.277,36.788
26.640,97.4955,1232.912,-15.222,-29.706,-10.851,4.025,31.881
26.660,97.5006,1232.445,-15.188,-29.350,-10.495,3.019,31.316
26.680,97.5021,1231.970,-15.135,-35.398,1.957,29.936,46.401
26.700,97.5005,1231.725,-15.054,-28.817,-13.519,24.150,39.955
26.720,97.4980,1231.748,-14.985,-28.995,-12.630,13.836,34.520
26.740,97.5020,1231.498,-14.947,-30.774,-12.985,17.609,37.759
26.760,97.5005,1231.439,-14.907,-27.394,-9.606,20.377,35.467
26.780,97.5036,1231.186,-14.847,-25.259,-9.250,19.622,33.296
26.800,97.5055,1230.855,-14.732,-24.903,-10.673,18.364,32.731
26.820,97.5107,1230.214,-14.651,-26.860,-14.053,17.609,35.058
26.840,97.5081,1229.899,-14.580,-33.442,-11.384,16.603,39.034
26.860,97.5111,1229.437,-14.462,-32.197,-7.293,18.112,37.655
26.880,97.5136,1228.888,-14.398,-26.860,-3.380,27.672,38.712
26.900,97.5126,1228.539,-14.372,-25.793,-0.534,14.339,29.515
26.920,97.5126,1228.283,-14.361,-22.947,-4.447,38.489,45.030
26.940,97.5176,1227.720,-14.399,-30.951,-17.432,11.823,37.439
26.960,97.5110,1227.790,-14.455,-28.105,-17.432,11.069,34.876
26.980,97.5166,1227.468,-14.500,-38.778,-13.875,-4.780,41.462
27.000,97.5192,1227.036,-14.556,-32.019,-12.096,-3.019,34.360
27.020,97.5151,1227.022,-14.640,-25.793,-27.572,16.352,41.144
27.040,97.5175,1226.864,-14.657,-24.548,-16.365,23.395,37.653
27.060,97.5170,1226.802,-14.748,-21.346,-14.586,22.892,34.532
27.080,97.5181,1226.707,-14.810,-20.278,-13.875,16.855,29.796
27.100,97.5266,1226.001,-14.911,-19.389,-13.341,22.138,32.311
27.120,97.5241,1225.628,-14.992,-19.923,-13.519,20.125,31.380
27.140,97.5231,1225.422,-15.035,-85.383,88.941,38.489,129.159
27.160,97.5226,1225.323,-15.097,-35.398,8.716,37.986,52.649
27.180,97.5246,1225.120,-15.124,-28.105,-2.490,-1.258,28.243
27.200,97.5231,1225.095,-15.152,-41.091,-0.889,-1.509,41.128
27.220,97.5246,1224.990,-15.186,-41.091,-11.207,-4.025,42.781
27.240,97.5281,1224.659,-15.290,-47.672,-41.269,-5.534,63.296
27.260,97.5276,1224.445,-15.345,-29.173,-45.182,-6.792,54.209
27.280,97.5261,1224.408,-15.373,-53.898,-35.398,4.025,64.608
27.300,97.5281,1224.249,-15.381,-50.696,-12.630,11.823,53.567
27.320,97.5280,1224.143,-15.363,-49.629,-10.851,12.327,52.275
27.340,97.5300,1223.926,-15.385,-76.667,-23.658,-9.056,80.744
27.360,97.5275,1223.953,-15.415,130.387,-78.802,247.538,290.664
27.380,97.5305,1223.770,-15.446,-94.989,47.672,-92.575,140.946
27.400,97.5331,1223.438,-15.475,-18.500,7.471,15.094,25.018
27.420,97.5351,1223.020,-15.507,-24.548,7.827,3.522,26.005
27.440,97.5330,1222.845,-15.547,-43.403,4.625,0.755,43.655
27.460,97.5355,1222.528,-15.510,-36.466,-13.697,10.063,40.232
27.480,97.5350,1222.324,-15.490,-19.389,-22.591,7.798,30.775
27.500,97.5340,1222.253,-15.469,-17.966,-24.370,6.792,31.029
27.520,97.5396,1221.787,-15.468,-28.817,-35.932,5.031,46.334
27.540,97.5380,1221.533,-15.475,-30.951,-20.990,-15.848,40.617
27.560,97.5375,1221.380,-15.522,-64.393,-10.673,-18.616,67.874
27.580,97.5390,1221.163,-15.611,-75.778,75.778,137.605,174.412
27.600,97.5405,1220.894,-15.670,-61.903,0.712,-65.155,89.875
27.620,97.5466,1220.222,-15.740,-0.712,60.480,33.458,69.121
27.640,97.5430,1219.955,-15.762,-13.519,2.490,14.842,20.230
27.660,97.5490,1219.294,-15.713,-10.139,4.803,-4.780,12.195
27.680,97.5506,1218.648,-15.725,-58.345,4.981,45.784,74.332
27.700,97.5486,1218.290,-15.799,-11.918,13.341,-3.019,18.142
27.720,97.5486,1218.026,-15.850,-30.774,10.139,-12.830,34.848
27.740,97.5531,1217.500,-15.899,-46.961,0.712,-19.873,50.998
27.760,97.5581,1216.709,-15.982,-26.326,-0.356,-24.402,35.898
27.780,97.5561,1216.240,-16.029,6.226,-63.859,11.320,65.153
27.800,97.5515,1216.238,-16.106,-17.788,-19.211,4.780,26.615
27.820,97.5611,1215.552,-16.180,-31.663,-13.875,15.094,37.721
27.840,97.5566,1215.364,-16.291,40.735,-86.984,171.817,196.842
27.860,97.5601,1214.986,-16.385,-48.206,-0.889,13.333,50.024
27.880,97.5641,1214.409,-16.478,-50.518,-3.913,-16.352,53.243
27.900,97.5651,1213.894,-16.580,-24.370,-57.100,63.142,88.551
27.920,97.5666,1213.393,-16.663,-39.845,-13.519,-10.566,43.383
27.940,97.5712,1212.672,-16.748,-8.716,-3.380,2.767,9.749
27.960,97.5716,1212.080,-16.864,-22.947,-5.159,15.094,27.946
27.980,97.5726,1211.560,-16.914,-22.235,-6.582,3.522,23.455
28.000,97.5757,1210.943,-16.962,-22.057,-5.336,10.063,24.825
28.020,97.5787,1210.247,-17.024,-23.480,1.067,16.603,28.777
28.040,97.5766,1209.879,-17.005,-26.149,7.649,24.653,36.743
28.060,97.5813,1209.278,-17.025,-15.476,8.360,19.873,26.540
28.080,97.5792,1208.993,-17.026,-14.586,10.673,7.044,19.398
28.100,97.5797,1208.779,-17.055,-22.235,2.312,-2.767,22.526
28.120,97.5802,1208.620,-17.131,-31.663,-68.307,-43.520,86.962
28.140,97.5812,1208.473,-17.217,-5.159,4.803,-13.081,14.859
28.160,97.5817,1208.362,-17.276,-10.851,6.582,1.006,12.731
28.180,97.5842,1208.128,-17.311,-38.600,-4.091,13.081,40.961
28.200,97.5852,1207.903,-17.338,-66.528,3.913,-64.903,93.025
28.220,97.5857,1207.719,-17.392,39.134,-97.835,-164.522,195.373
28.240,97.5897,1207.301,-17.395,-5.159,-77.378,17.609,79.524
28.260,97.5913,1206.870,-17.409,-50.874,14.942,22.892,57.754
28.280,97.5897,1206.667,-17.478,-50.163,12.452,18.364,54.850
28.300,97.5887,1206.617,-17.543,-11.207,-9.072,-29.936,33.227
28.320,97.5882,1206.650,-17.606,-11.207,-19.745,-13.836,26.587
28.340,97.5881,1206.721,-17.611,-28.817,-13.163,19.622,37.265
28.360,97.5912,1206.575,-17.557,-59.590,19.745,-63.142,89.038
28.380,97.5942,1206.247,-17.493,-1.245,-75.600,-14.591,77.005
28.400,97.5978,1205.722,-17.438,-27.927,1.957,0.503,28.000
28.420,97.5922,1205.735,-17.409,-27.927,-21.168,7.547,35.847
28.440,97.5957,1205.504,-17.399,-26.149,-17.966,1.509,31.762
28.460,97.5902,1205.754,-17.330,-52.475,-23.302,-0.755,57.421
28.480,97.5911,1205.915,-17.341,-17.432,-6.759,-10.566,21.476
28.500,97.5916,1206.035,-17.343,-21.524,-15.120,-28.427,38.729
28.520,97.5966,1205.767,-17.360,-2.846,-29.528,-89.808,94.580
28.540,97.5961,1205.595,-17.398,-48.917,11.207,-4.277,50.367
28.560,97.6092,1204.453,-17.429,-46.783,-34.331,-4.277,58.185
28.580,97.6092,1203.500,-17.472,-32.374,-24.903,-17.609,44.479
28.600,97.6072,1202.862,-17.512,-56.744,15.476,-2.767,58.882
28.620,97.6067,1202.396,-17.578,-41.269,-1.067,-13.836,43.539
28.640,97.6067,1202.035,-17.647,-25.259,-9.606,-6.541,27.804
28.660,97.6001,1202.269,-17.623,-29.884,-18.500,-21.383,41.140
28.680,97.6046,1202.156,-17.649,-18.855,-14.586,-4.780,24.313
28.700,97.6127,1201.479,-17.694,-24.548,-16.365,-12.075,31.878
28.720,97.6137,1200.858,-17.701,-19.211,-9.606,-11.320,24.279
28.740,97.6182,1200.023,-17.715,-21.879,-5.159,-6.037,23.276
28.760,97.6207,1199.163,-17.774,-21.702,0.000,-25.911,33.798
28.780,97.6202,1198.521,-17.864,-32.197,0.889,-20.125,37.979
28.800,97.6233,1197.793,-17.923,-26.149,17.255,-28.427,42.303
28.820,97.6232,1197.233,-17.898,-29.173,-11.384,-7.798,32.272
28.840,97.6247,1196.706,-17.913,-25.793,-16.187,-6.037,31.044
28.860,97.6278,1196.087,-17.887,-26.860,-20.101,-0.252,33.549
28.880,97.6268,1195.702,-17.878,-30.240,-13.163,-12.075,35.122
28.900,97.6277,1195.367,-17.859,-21.168,-12.274,-12.830,27.628
28.920,97.6288,1195.066,-17.907,-18.500,-12.452,-14.842,26.788
28.940,97.6313,1194.687,-17.917,-20.634,-16.365,-16.352,30.999
28.960,97.6322,1194.352,-17.957,-25.437,-16.543,-17.861,35.210
28.980,97.6333,1194.046,-17.977,-30.240,-14.942,-17.609,38.050
29.000,97.6298,1194.115,-17.939,-31.129,-15.831,-10.566,36.487
29.020,97.6312,1194.123,-17.933,-28.461,-17.432,-9.811,34.788
29.040,97.6277,1194.455,-18.037,-27.038,-18.144,-14.842,35.785
29.060,97.6322,1194.432,-18.077,-32.019,-17.788,-17.861,40.751
29.080,97.6327,1194.414,-18.131,-33.264,-13.341,-14.339,38.602
29.100,97.6373,1194.084,-18.190,-33.086,-4.625,-0.755,33.416
29.120,97.6367,1193.880,-18.228,-26.326,-7.827,-14.842,31.219
29.140,97.6428,1193.267,-18.254,-26.682,-6.759,-8.050,28.678
29.160,97.6428,1192.776,-18.300,-35.221,-3.913,-7.547,36.232
29.180,97.6428,1192.396,-18.338,-54.965,50.696,62.891,97.706
29.200,97.6423,1192.147,-18.384,-30.774,-15.120,-12.075,36.351
29.220,97.6494,1191.426,-18.438,-38.778,-22.057,3.019,44.714
29.240,97.6443,1191.235,-18.505,-42.514,-14.053,18.867,48.589
29.260,97.6442,1191.114,-18.566,-36.288,-2.135,28.930,46.457
29.280,97.6539,1190.311,-18.629,-26.326,4.625,24.150,36.024
29.300,97.6574,1189.391,-18.678,-24.726,3.736,9.559,26.771
29.320,97.6579,1188.615,-18.697,-28.283,-3.736,-4.277,28.848
29.340,97.6534,1188.349,-18.699,-28.817,-17.077,-19.370,38.694
29.360,97.6467,1188.683,-18.696,-24.014,-26.504,-23.395,42.737
29.380,97.6503,1188.740,-18.733,-17.432,-28.105,-8.302,34.099
29.400,97.6508,1188.797,-18.789,-9.428,-17.255,-6.289,20.643
29.420,97.6538,1188.648,-18.804,-7.649,-8.716,-18.364,21.719
29.440,97.6564,1188.360,-18.822,-11.384,-4.625,-26.163,28.905
29.460,97.6537,1188.350,-18.809,-38.778,-7.827,-32.452,51.167
29.480,97.6633,1187.637,-18.770,-40.379,-6.937,-10.817,42.375
29.500,97.6654,1186.904,-18.736,-40.023,-17.610,11.572,45.232
29.520,97.6710,1185.890,-18.654,-47.850,-21.524,-55.847,76.628
29.540,97.6704,1185.109,-18.619,-35.576,-14.586,-9.559,39.621
29.560,97.6739,1184.227,-18.554,-41.091,-8.005,-10.566,43.176
29.580,97.6784,1183.180,-18.609,-42.869,-28.639,-57.608,77.309
29.600,97.6795,1182.268,-18.659,-45.716,-19.389,22.892,54.680
29.620,97.6839,1181.218,-18.675,-41.802,-9.783,-7.044,43.506
29.640,97.6810,1180.625,-18.685,-32.197,-8.716,-17.609,37.718
29.660,97.6760,1180.577,-18.702,-24.726,-13.341,-19.119,33.983
29.680,97.6785,1180.421,-18.620,-35.932,-17.077,-6.541,40.318
29.700,97.6819,1180.097,-18.560,-21.524,-14.764,-4.780,26.535
29.720,97.6819,1179.891,-18.529,-21.702,-21.346,-16.100,34.436
29.740,97.6855,1179.511,-18.480,-11.029,-21.346,-19.873,31.181
29.760,97.6890,1178.983,-18.436,-8.005,-25.081,-18.616,32.244
29.780,97.6905,1178.484,-18.463,-33.975,-5.870,98.361,104.229
29.800,97.6914,1178.048,-18.477,-22.413,-9.961,-10.817,26.806
29.820,97.6884,1177.971,-18.482,-37.533,-5.514,-14.842,40.736
29.840,97.6864,1178.124,-18.463,-60.658,0.534,12.578,61.950
29.860,97.6884,1178.158,-18.482,-84.850,-16.899,-15.345,87.866
29.880,97.6894,1178.156,-18.504,-49.807,-37.355,-12.075,63.419
29.900,97.6868,1178.396,-18.538,-23.125,-30.951,8.050,39.466
29.920,97.6964,1177.903,-18.609,-5.692,-11.384,6.541,14.310
29.940,97.6929,1177.787,-18.664,1.245,-2.668,2.013,3.567
29.960,97.6944,1177.605,-18.678,0.712,-3.558,-7.547,8.374
29.980,97.6940,1177.517,-18.687,-9.606,-13.163,-15.094,22.212
30.000,97.6884,1177.899,-18.721,-39.668,-31.485,-27.923,57.832
30.020,97.6914,1178.015,-18.690,-52.653,-20.634,-3.019,56.632
30.040,97.7040,1177.170,-18.675,-38.067,-0.356,6.289,38.584
30.060,97.7010,1176.698,-18.601,-18.855,17.432,-61.381,66.536
30.080,97.7004,1176.363,-18.511,-19.033,3.380,-16.603,25.482
30.100,97.7055,1175.707,-18.455,-28.283,-5.870,-25.911,38.804
30.120,97.7049,1175.221,-18.421,-18.322,-39.668,-15.345,46.311
30.140,97.7054,1174.801,-18.424,-23.658,4.447,13.584,27.641
30.160,97.7095,1174.157,-18.451,-69.374,-58.345,41.005,99.490
30.180,97.7104,1173.574,-18.401,-17.255,-27.927,2.264,32.906
30.200,97.7115,1173.037,-18.430,-34.153,-106.729,19.119,113.680
30.220,97.7140,1172.429,-18.406,-8.716,-17.255,19.622,27.545
30.240,97.7175,1171.685,-18.382,-15.298,-6.759,2.013,16.845
30.260,97.7155,1171.256,-18.303,-18.144,-6.048,-2.013,19.231
30.280,97.7166,1170.859,-18.178,-31.485,-18.678,-18.867,41.184
30.300,97.7190,1170.389,-18.157,-30.596,15.654,-15.345,37.638
30.320,97.7190,1170.044,-18.141,-43.759,7.827,-35.973,57.186
30.340,97.7200,1169.724,-18.118,-39.668,20.812,-48.552,66.060
30.360,97.7220,1169.353,-18.045,-18.144,2.135,-10.566,21.104
30.380,97.7266,1168.745,-17.941,-15.120,-7.649,-3.773,17.360
30.400,97.7285,1168.130,-17.849,-20.812,-11.918,-1.258,24.016
30.420,97.7225,1168.127,-17.730,-24.726,-8.360,-2.013,26.178
30.440,97.7311,1167.520,-17.639,-38.956,11.207,-23.647,46.929
30.460,97.7265,1167.410,-17.601,-25.081,-8.005,-20.125,33.139
30.480,97.7315,1166.985,-17.498,-33.442,-8.538,-10.566,36.095
30.500,97.7341,1166.483,-17.457,-31.841,-3.024,-20.125,37.789
30.520,97.7305,1166.381,-17.449,-26.682,-4.981,-9.811,28.862
30.540,97.7340,1166.078,-17.478,-25.793,-5.870,-8.805,27.879
30.560,97.7335,1165.910,-17.462,-43.225,-2.312,-5.283,43.608
30.580,97.7376,1165.501,-17.449,-31.129,5.159,-26.163,40.989
30.600,97.7396,1165.046,-17.483,-10.317,-9.250,-15.094,20.490
30.620,97.7400,1164.670,-17.541,-14.408,-21.524,-31.194,40.545
30.640,97.7426,1164.205,-17.651,-39.668,-6.226,-23.395,46.472
30.660,97.7461,1163.588,-17.700,-32.197,-15.831,1.509,35.910
30.680,97.7435,1163.305,-17.651,-14.586,-11.740,-1.761,18.807
30.700,97.7445,1163.037,-17.601,-33.620,-19.745,-6.037,39.454
30.720,97.7425,1163.011,-17.564,-48.028,-8.894,-1.509,48.868
30.740,97.7420,1163.076,-17.538,-66.706,-33.620,-4.780,74.852
30.760,97.7404,1163.290,-17.520,-43.403,-58.345,4.780,72.875
30.780,97.7490,1162.849,-17.545,-39.668,-47.139,2.264,61.650
30.800,97.7506,1162.390,-17.567,-43.225,-19.745,-11.320,48.851
30.820,97.7490,1162.153,-17.561,-38.778,-11.029,-20.377,45.173
30.840,97.7485,1162.021,-17.552,-173.612,-80.047,-101.380,216.395
30.860,97.7541,1161.517,-17.531,-13.519,-3.202,-9.056,16.584
30.880,97.7540,1161.125,-17.464,-25.081,-14.764,-14.087,32.334
30.900,97.7591,1160.438,-17.418,-28.105,-20.990,-20.880,40.822
30.920,97.7651,1159.427,-17.389,-19.389,-17.610,-2.767,26.338
30.940,97.7651,1158.607,-17.413,-9.961,-21.702,69.683,73.661
30.960,97.7601,1158.343,-17.343,-43.759,18.855,82.261,95.064
30.980,97.7610,1158.094,-17.343,-26.504,-0.889,-5.534,27.091
31.000,97.7656,1157.586,-17.289,-32.019,-9.961,-4.025,33.773
31.020,97.7640,1157.321,-17.235,-14.231,4.981,-11.320,18.854
31.041,97.7671,1156.911,-17.177,-67.773,-16.187,-43.520,82.154
31.061,97.7661,1156.687,-17.178,-41.091,-58.879,0.252,71.800
31.081,97.7625,1156.822,-17.183,-27.572,-43.937,-27.923,58.910
31.101,97.7686,1156.522,-17.181,-33.086,-28.105,27.169,51.213
31.121,97.7695,1156.236,-17.160,-24.726,-5.159,46.287,52.730
31.141,97.7771,1155.456,-17.183,-52.297,-1.423,27.672,59.184
31.161,97.7766,1154.870,-17.189,-55.499,-6.404,-12.830,57.321
31.181,97.7700,1154.927,-17.200,-24.370,-12.985,-9.559,29.221
31.201,97.7821,1154.097,-17.192,-13.519,-14.586,8.302,21.551
31.221,97.7791,1153.667,-17.218,-4.447,-6.582,4.277,9.021
31.241,97.7745,1153.700,-17.252,-1.601,-9.783,5.283,11.233
31.261,97.7756,1153.695,-17.267,0.712,-6.404,0.000,6.443
31.281,97.7724,1153.974,-17.280,-27.038,-65.105,39.747,80.929
31.301,97.7780,1153.824,-17.324,-12.630,16.899,-5.786,21.876
31.321,97.7774,1153.773,-17.357,-30.240,15.298,6.792,34.563
31.341,97.7784,1153.685,-17.303,-64.215,-66.350,-89.053,128.282
31.361,97.7794,1153.563,-17.312,7.471,-27.038,-21.886,35.579
31.381,97.7850,1153.061,-17.247,-2.490,-15.654,-5.283,16.708
31.401,97.7855,1152.619,-17.244,-5.870,-14.764,-9.308,18.414
31.421,97.7845,1152.351,-17.248,-20.278,-48.740,-12.830,54.326
31.441,97.7874,1151.923,-17.177,-17.432,-18.855,-7.295,26.695
31.461,97.7940,1151.085,-17.212,-14.586,-22.769,-5.786,27.652
31.481,97.7915,1150.598,-17.184,-15.120,-24.370,-5.031,29.117
31.501,97.7919,1150.188,-17.219,-17.255,-25.437,-7.547,31.650
31.521,97.7965,1149.529,-17.259,-45.538,-32.374,0.755,55.878
31.541,97.7980,1148.890,-17.231,-58.701,-70.797,71.192,116.303
31.561,97.7954,1148.589,-17.226,-20.634,-2.846,8.302,22.423
31.581,97.7949,1148.421,-17.187,-16.009,14.586,-55.595,59.665
31.601,97.7985,1148.053,-17.208,11.029,16.721,-15.094,25.081
31.621,97.8025,1147.476,-17.253,-25.081,-2.668,43.017,49.867
31.641,97.8071,1146.682,-17.255,-0.356,7.471,2.013,7.746
31.661,97.8050,1146.218,-17.272,-84.850,47.494,-15.345,98.441
31.681,97.8005,1146.223,-17.303,-18.322,8.716,4.780,20.845
31.701,97.8005,1146.280,-17.282,-41.624,8.538,4.025,42.681
31.721,97.8010,1146.343,-17.319,21.524,26.860,17.861,38.778
31.741,97.8045,1146.167,-17.334,-32.019,-0.712,6.792,32.739
31.761,97.8045,1146.059,-17.349,-54.432,-3.913,-13.836,56.299
31.781,97.8085,1145.698,-17.321,-31.307,-16.365,-31.445,47.294
31.801,97.8090,1145.390,-17.352,-48.740,-35.932,-8.553,61.154
31.821,97.8070,1145.323,-17.390,-34.687,-27.216,32.200,54.596
31.841,97.8120,1144.912,-17.332,-36.821,-18.678,8.050,42.065
31.861,97.8151,1144.365,-17.287,-30.240,-11.029,-2.013,32.251
31.881,97.8100,1144.323,-17.276,-100.681,-3.558,-31.445,105.537
31.901,97.8140,1144.015,-17.217,-20.634,-6.759,-3.019,21.922
31.921,97.8211,1143.247,-17.212,-44.826,-20.278,-9.308,50.072
31.941,97.8206,1142.669,-17.300,-29.884,-20.990,21.634,42.446
31.961,97.8150,1142.639,-17.395,-35.576,-29.528,20.377,50.525
31.981,97.8246,1141.926,-17.426,-42.336,-31.663,9.559,53.724
32.001,97.8211,1141.625,-17.461,-25.971,-19.567,20.880,38.643
32.021,97.8291,1140.798,-17.536,-18.678,-6.226,12.327,23.228
32.041,97.8286,1140.182,-17.541,-26.149,-8.716,8.805,28.935
32.061,97.8255,1139.936,-17.582,-29.706,-4.091,23.898,38.345
32.081,97.8316,1139.313,-17.586,-32.374,-6.048,23.898,40.692
32.101,97.8341,1138.645,-17.572,-30.062,-14.408,15.345,36.699
32.121,97.8291,1138.515,-17.589,-34.153,-20.990,5.031,40.402
32.141,97.8376,1137.803,-17.620,-22.413,-12.452,0.000,25.640
32.161,97.8376,1137.255,-17.676,-24.726,-9.072,3.522,26.572
32.181,97.8366,1136.921,-17.739,-21.346,-3.913,7.547,22.976
32.201,97.8361,1136.739,-17.731,-19.923,-1.067,9.811,22.233
32.221,97.8416,1136.216,-17.814,-21.346,0.712,8.302,22.914
32.241,97.8427,1135.747,-17.824,-48.740,-6.404,-3.773,49.303
32.261,97.8391,1135.677,-17.788,-20.634,-13.875,2.516,24.992
32.281,97.8436,1135.324,-17.765,-19.923,-22.413,8.553,31.184
32.301,97.8487,1134.686,-17.679,-23.658,-17.966,-1.258,29.733
32.321,97.8477,1134.279,-17.653,-30.596,-24.548,-6.541,39.768
32.341,97.8395,1134.610,-17.583,-30.240,16.365,19.119,39.342
32.361,97.8487,1134.239,-17.543,-32.197,14.764,18.867,40.132
32.381,97.8400,1134.638,-17.503,-23.302,6.226,18.616,30.468
32.401,97.8456,1134.589,-17.500,-27.572,-6.937,17.106,33.181
32.421,97.8465,1134.509,-17.472,-32.908,-20.101,13.584,40.884
32.441,97.8460,1134.515,-17.418,-52.119,-30.062,-12.578,61.468
32.461,97.8526,1134.042,-17.309,-75.600,-22.591,-16.603,80.631
32.481,97.8520,1133.711,-17.262,-24.014,-48.562,19.370,57.534
32.501,97.8571,1133.071,-17.123,-9.428,-21.879,13.584,27.425
32.521,97.8576,1132.512,-16.997,-19.211,1.779,33.709,38.840
32.541,97.8556,1132.227,-16.934,-48.562,45.716,52.325,84.771
32.561,97.8571,1131.903,-16.904,-19.389,19.033,81.255,85.677
32.581,97.8560,1131.741,-16.846,-35.754,-13.341,-3.773,38.348
32.601,97.8616,1131.211,-16.748,-89.119,100.859,45.784,142.165
32.621,97.8651,1130.528,-16.640,-24.903,-15.298,0.755,29.236
32.641,97.8616,1130.252,-16.579,-8.005,142.839,-94.336,171.366
32.661,97.8636,1129.906,-16.569,-48.562,23.302,-26.414,59.991
32.681,97.8641,1129.612,-16.526,-90.364,-25.615,-50.313,106.551
32.701,97.8626,1129.517,-16.425,-32.730,-58.345,20.125,69.860
32.721,97.8711,1128.825,-16.315,-4.803,-31.129,17.106,35.843
32.741,97.8731,1128.122,-16.211,-23.302,-17.610,13.584,32.213
32.761,97.8762,1127.333,-16.143,-45.004,3.736,17.106,48.290
32.781,97.8752,1126.785,-16.083,-15.476,0.534,16.100,22.338
32.801,97.8761,1126.297,-16.041,-8.894,-1.067,6.289,10.945
32.821,97.8782,1125.778,-16.012,-2.135,-0.356,8.050,8.336
32.841,97.8706,1125.976,-15.930,-2.312,-3.380,10.817,11.566
32.861,97.8751,1125.852,-15.889,-2.846,-2.846,13.081,13.686
32.881,97.8761,1125.718,-15.866,-14.764,-1.601,16.352,22.089
32.901,97.8726,1125.919,-15.787,-32.197,-9.072,20.628,39.299
32.921,97.8766,1125.826,-15.747,-63.148,-30.774,-67.922,97.714
32.941,97.8842,1125.208,-15.731,-11.918,-5.514,4.780,13.975
32.961,97.8872,1124.487,-15.709,-16.009,-10.673,15.597,24.768
32.981,97.8871,1123.917,-15.627,-1.957,-17.255,36.477,40.399
33.001,97.8892,1123.316,-15.603,-22.947,-6.582,32.200,40.084
33.021,97.8917,1122.658,-15.557,-45.360,8.005,28.427,54.126
33.041,97.8876,1122.463,-15.619,-34.687,-42.869,-14.842,57.107
33.061,97.8912,1122.071,-15.666,-50.518,22.057,37.231,66.519
33.081,97.8901,1121.867,-15.677,-66.706,45.716,34.967,88.104
33.101,97.8942,1121.428,-15.655,-37.889,6.226,4.780,38.693
33.121,97.8942,1121.106,-15.657,-22.235,14.408,55.092,61.132
33.141,97.8977,1120.611,-15.651,-12.274,-13.697,23.898,30.156
33.161,97.8957,1120.391,-15.711,-14.586,-14.231,30.188,36.422
33.181,97.8992,1119.983,-15.776,-24.726,1.957,26.163,36.051
33.201,97.8997,1119.644,-15.800,-2.668,9.072,18.364,20.656
33.221,97.9012,1119.290,-15.804,-42.336,-4.981,29.684,51.945
33.241,97.8976,1119.311,-15.823,-15.831,-0.534,1.258,15.890
33.261,97.8991,1119.258,-15.869,0.356,-20.278,16.352,26.052
33.281,97.9022,1119.021,-15.854,2.668,9.072,15.597,18.240
33.301,97.9001,1119.011,-15.858,-15.831,3.024,12.578,20.445
33.321,97.9043,1118.725,-15.898,-25.437,0.889,4.025,25.769
33.341,97.9021,1118.677,-15.939,-16.187,-2.668,26.163,30.881
33.361,97.9072,1118.281,-15.907,-16.009,-20.990,38.489,46.672
33.381,97.9087,1117.863,-15.964,-27.038,-11.029,16.603,33.591
33.401,97.9103,1117.416,-15.919,-21.346,-17.077,12.075,29.884
33.421,97.9091,1117.153,-15.898,-39.668,-32.908,-13.333,53.237
33.441,97.9096,1116.925,-15.897,-52.653,-15.298,-1.761,54.859
33.461,97.9022,1117.338,-15.846,-43.225,-4.447,25.408,50.336
33.481,97.9052,1117.488,-15.866,-30.774,-2.668,25.911,40.318
33.501,97.8990,1118.109,-15.867,-58.167,-19.745,16.603,63.631
33.521,97.9021,1118.422,-15.905,-56.211,-33.442,6.541,65.732
33.541,97.9076,1118.277,-15.931,-51.941,-35.576,13.333,64.353
33.561,97.9122,1117.809,-15.942,-36.288,-18.855,12.830,42.859
33.581,97.9137,1117.302,-15.914,-19.567,-4.981,5.534,20.936
33.601,97.9116,1117.041,-15.849,-25.971,-7.471,-0.252,27.025
33.621,97.9091,1117.016,-15.890,-29.173,-8.538,1.509,30.434
33.641,97.9131,1116.707,-15.982,-28.105,-13.519,2.767,31.310
33.661,97.9166,1116.188,-15.980,-25.259,-18.144,4.025,31.360
33.681,97.9172,1115.718,-15.954,-30.062,-18.678,14.842,38.378
33.701,97.9166,1115.380,-15.926,-46.249,-15.654,19.119,52.436
33.721,97.9182,1114.996,-15.915,-50.340,-18.678,17.861,56.586
33.741,97.9206,1114.505,-15.944,-45.360,-23.658,12.578,52.682
33.761,97.9237,1113.880,-15.988,-36.999,-22.769,9.559,44.483
33.781,97.9272,1113.111,-16.101,-32.374,-21.346,8.050,39.605
33.801,97.9277,1112.454,-16.201,-21.879,-15.120,11.572,29.004
33.821,97.9313,1111.666,-16.275,-22.235,-15.120,14.591,30.593
33.841,97.9292,1111.202,-16.378,-28.817,-22.057,13.333,38.661
33.861,97.9316,1110.672,-16.390,-33.620,-22.235,11.320,41.867
33.881,97.9332,1110.152,-16.382,-35.043,-15.476,6.541,38.862
33.901,97.9337,1109.730,-16.401,-33.797,-11.384,8.553,36.675
33.921,97.9367,1109.196,-16.407,-32.019,-11.384,7.295,34.757
33.941,97.9351,1108.922,-16.459,-36.466,-19.033,11.572,42.731
33.961,97.9372,1108.588,-16.544,-34.865,-20.990,17.106,44.145
33.981,97.9377,1108.328,-16.603,-35.932,-18.144,14.087,42.647
34.001,97.9377,1108.166,-16.659,-36.288,-6.404,9.811,38.132
34.021,97.9406,1107.856,-16.718,-37.711,-1.423,6.541,38.300
34.041,97.9482,1107.068,-16.792,-27.394,1.423,1.006,27.449
34.061,97.9492,1106.377,-16.842,-33.797,-3.558,3.773,34.193
34.081,97.9503,1105.766,-16.827,-30.774,-11.207,-0.503,32.754
34.101,97.9426,1105.888,-16.824,54.076,-160.449,42.514,174.573
34.121,97.9451,1105.861,-16.856,-11.562,-10.495,-2.767,15.858
34.141,97.9517,1105.388,-16.907,-30.062,-9.072,-1.258,31.426
34.161,97.9533,1104.916,-16.963,-26.326,-5.692,5.786,27.549
34.181,97.9563,1104.340,-16.990,-34.153,-0.356,-0.755,34.163
34.201,97.9547,1104.020,-17.036,-58.701,-14.231,14.591,62.138
34.221,97.9553,1103.761,-17.084,-86.984,146.397,-45.281,176.206
34.241,97.9537,1103.710,-17.145,-14.231,1.423,-4.780,15.079
34.261,97.9582,1103.369,-17.180,-32.197,-5.870,0.755,32.736
34.281,97.9567,1103.243,-17.169,-93.921,28.105,-6.037,98.222
34.301,97.9567,1103.185,-17.194,-41.091,6.937,5.031,41.975
34.321,97.9582,1103.061,-17.216,-33.264,-3.736,8.302,34.487
34.341,97.9618,1102.719,-17.271,-32.908,-8.716,36.980,50.263
34.361,97.9632,1102.352,-17.345,-20.101,-15.476,28.930,38.477
34.381,97.9672,1101.770,-17.436,-20.456,-7.649,14.842,26.406
34.401,97.9662,1101.391,-17.462,-19.745,-12.985,25.156,34.515
34.421,97.9657,1101.145,-17.485,-19.567,-18.500,16.352,31.504
34.441,97.9697,1100.665,-17.490,-15.476,-19.745,9.056,26.672
34.461,97.9667,1100.531,-17.535,-23.658,-11.207,-5.283,26.706
34.481,97.9708,1100.142,-17.481,20.812,-53.898,20.880,61.434
34.501,97.9717,1099.775,-17.437,3.380,-15.120,5.031,16.290
34.521,97.9732,1099.388,-17.341,36.466,-69.907,24.905,82.686
34.541,97.9738,1099.054,-17.239,-29.173,-8.183,2.767,30.425
34.561,97.9762,1098.619,-17.215,-35.932,-11.740,6.792,38.407
34.581,97.9722,1098.596,-17.192,-37.177,-19.389,-5.031,42.230
34.601,97.9712,1098.696,-17.173,-33.797,-26.682,-14.591,45.465
34.621,97.9807,1098.087,-17.164,-24.903,-30.240,-1.258,39.195
34.641,97.9858,1097.215,-17.100,-16.721,-21.702,18.112,32.842
34.661,97.9802,1096.940,-17.026,-18.855,-10.673,15.345,26.550
34.681,97.9777,1096.936,-16.950,-40.735,-8.716,5.786,42.057
34.701,97.9792,1096.860,-16.973,-41.624,-7.115,6.541,42.732
34.721,97.9853,1096.365,-16.986,-50.340,-12.274,1.509,51.837
34.741,97.9837,1096.101,-16.911,-55.321,-22.235,-7.295,60.067
34.761,97.9857,1095.760,-16.842,-44.470,-31.663,-3.270,54.689
34.781,97.9934,1094.926,-16.797,-30.596,-19.923,10.817,38.079
34.801,97.9954,1094.103,-16.813,-13.519,-5.692,11.823,18.840
34.821,97.9932,1093.610,-16.820,-6.759,-2.135,8.805,11.304
34.841,97.9973,1092.929,-16.860,-14.231,1.067,9.056,16.902
34.861,97.9963,1092.477,-16.876,-56.211,17.077,15.848,60.847
34.881,97.9917,1092.496,-16.858,-75.955,58.167,29.936,100.244
34.901,97.9962,1092.221,-16.865,-6.048,-37.355,5.031,38.175
34.921,98.0008,1091.689,-16.881,3.913,-11.029,21.383,24.376
34.941,98.0048,1090.979,-16.881,-0.534,6.226,12.075,13.596
34.961,98.0037,1090.510,-16.856,-0.356,-32.374,14.087,35.308
34.981,97.9997,1090.469,-16.827,-13.875,-22.057,-13.584,29.387
35.001,98.0018,1090.333,-16.804,-40.735,-9.072,-0.252,41.734
35.021,98.0023,1090.227,-16.802,-13.519,1.067,-1.761,13.675
35.041,98.0038,1090.070,-16.783,-33.620,5.870,5.031,34.497
35.061,98.0073,1089.714,-16.819,-26.860,-5.159,9.308,28.891
35.081,97.9982,1090.149,-16.894,-29.350,-22.591,17.609,41.011
35.101,98.0028,1090.211,-16.958,-15.298,-23.836,18.364,33.755
35.121,98.0052,1090.112,-16.933,-27.750,-13.519,20.628,37.126
35.141,98.0098,1089.705,-16.909,-58.523,-22.591,-23.898,67.130
35.161,98.0092,1089.431,-16.927,-36.466,-10.495,-12.075,39.821
35.181,98.0097,1089.183,-16.955,-41.269,-14.942,14.087,46.096
35.201,98.0107,1088.926,-17.013,-40.913,-19.567,-1.509,45.376
35.221,98.0128,1088.577,-17.043,-50.340,-23.658,-7.547,56.132
35.241,98.0152,1088.117,-17.053,-49.629,-21.168,2.767,54.026
